#timestamp [ns],w_RS_S_x [rad s^-1],w_RS_S_y [rad s^-1],w_RS_S_z [rad s^-1],a_RS_S_x [m s^-2],a_RS_S_y [m s^-2],a_RS_S_z [m s^-2]
1749296433000178688,0.001095910334030173,-0.0002947503987112544,0.0004630134508225781,-0.030770150198221137,0.3550011040256909,3.2014016109110512
1749296433004614400,0.001095910334030173,-0.0002947503987112544,0.0004630134508225781,-0.030770150198221137,0.3550011040256909,3.2014016109110512
1749296433009598208,0.001095910334030173,-0.0002947503987112544,0.0004630134508225781,-0.030770150198221137,0.3550011040256909,3.2014016109110512
1749296433014598400,0.001095910334030173,-0.0002947503987112544,0.0004630134508225781,-0.030770150198221137,0.3550011040256909,3.2014016109110512
1749296433019612928,0.001095910334030173,-0.0002947503987112544,0.0004630134508225781,-0.030770150198221137,0.3550011040256909,3.2014016109110512
1749296433024629248,0.001095910334030173,-0.0002947503987112544,0.0004630134508225781,-0.030770150198221137,0.3550011040256909,3.2014016109110512
1749296433029629696,0.001095910334030173,-0.0002947503987112544,0.0004630134508225781,-0.030770150198221137,0.3550011040256909,3.2014016109110512
1749296433034629120,0.001095910334030173,-0.0002947503987112544,0.0004630134508225781,-0.030770150198221137,0.3550011040256909,3.2014016109110512
1749296433039628288,0.001095910334030173,-0.0002947503987112544,0.0004630134508225781,-0.030770150198221137,0.3550011040256909,3.2014016109110512
1749296433044629248,0.001095910334030173,-0.0002947503987112544,0.0004630134508225781,-0.030770150198221137,0.3550011040256909,3.2014016109110512
1749296433049627904,0.001095910334030173,-0.0002947503987112544,0.0004630134508225781,-0.030770150198221137,0.3550011040256909,3.2014016109110512
1749296433054629888,0.001095910334030173,-0.0002947503987112544,0.0004630134508225781,-0.030770150198221137,0.3550011040256909,3.2014016109110512
1749296433059628032,0.001095910334030173,-0.0002947503987112544,0.0004630134508225781,-0.030770150198221137,0.3550011040256909,3.2014016109110512
1749296433064628480,0.001095910334030173,-0.0002947503987112544,0.0004630134508225781,-0.030770150198221137,0.3550011040256909,3.2014016109110512
1749296433069629440,0.001095910334030173,-0.0002947503987112544,0.0004630134508225781,-0.030770150198221137,0.3550011040256909,3.2014016109110512
1749296433074629376,0.001095910334030173,-0.0002947503987112544,0.0004630134508225781,-0.030770150198221137,0.3550011040256909,3.2014016109110512
1749296433079623424,0.001095910334030173,-0.0002947503987112544,0.0004630134508225781,-0.030770150198221137,0.3550011040256909,3.2014016109110512
1749296433084620288,0.001095910334030173,-0.0002947503987112544,0.0004630134508225781,-0.030770150198221137,0.3550011040256909,3.2014016109110512
1749296433089636608,0.001095910334030173,-0.0002947503987112544,0.0004630134508225781,-0.030770150198221137,0.3550011040256909,3.2014016109110512
1749296433094628864,0.001095910334030173,-0.0002947503987112544,0.0004630134508225781,-0.030770150198221137,0.3550011040256909,3.2014016109110512
1749296433099604736,0.001095910334030173,-0.0002947503987112544,0.0004630134508225781,-0.030770150198221137,0.3550011040256909,3.2014016109110512
1749296433104601600,0.001095910334030173,-0.0002947503987112544,0.0004630134508225781,-0.030770150198221137,0.3550011040256909,3.2014016109110512
1749296433109601024,0.001095910334030173,-0.0002947503987112544,0.0004630134508225781,-0.030770150198221137,0.3550011040256909,3.2014016109110512
1749296433116681216,0.0005843550541286979,-0.00021778048363281068,-3.6060284739730286e-05,-0.02936465036866985,0.36417169677160993,3.2026746198501597
1749296433119611648,0.0005843550541286979,-0.00021778048363281068,-3.6060284739730286e-05,-0.02936465036866985,0.36417169677160993,3.2026746198501597
1749296433124599552,0.0005843550541286979,-0.00021778048363281068,-3.6060284739730286e-05,-0.02936465036866985,0.36417169677160993,3.2026746198501597
1749296433129593600,0.0005843550541286979,-0.00021778048363281068,-3.6060284739730286e-05,-0.02936465036866985,0.36417169677160993,3.2026746198501597
1749296433134596352,0.0005843550541286979,-0.00021778048363281068,-3.6060284739730286e-05,-0.02936465036866985,0.36417169677160993,3.2026746198501597
1749296433139614720,0.0005843550541286979,-0.00021778048363281068,-3.6060284739730286e-05,-0.02936465036866985,0.36417169677160993,3.2026746198501597
1749296433144604160,0.0005843550541286979,-0.00021778048363281068,-3.6060284739730286e-05,-0.02936465036866985,0.36417169677160993,3.2026746198501597
1749296433149602048,0.0005843550541286979,-0.00021778048363281068,-3.6060284739730286e-05,-0.02936465036866985,0.36417169677160993,3.2026746198501597
1749296433154603008,0.0005843550541286979,-0.00021778048363281068,-3.6060284739730286e-05,-0.02936465036866985,0.36417169677160993,3.2026746198501597
1749296433159604736,0.0005843550541286979,-0.00021778048363281068,-3.6060284739730286e-05,-0.02936465036866985,0.36417169677160993,3.2026746198501597
1749296433164616448,0.0005843550541286979,-0.00021778048363281068,-3.6060284739730286e-05,-0.02936465036866985,0.36417169677160993,3.2026746198501597
1749296433169614848,0.0005843550541286979,-0.00021778048363281068,-3.6060284739730286e-05,-0.02936465036866985,0.36417169677160993,3.2026746198501597
1749296433174603008,0.0005843550541286979,-0.00021778048363281068,-3.6060284739730286e-05,-0.02936465036866985,0.36417169677160993,3.2026746198501597
1749296433179608576,0.0005843550541286979,-0.00021778048363281068,-3.6060284739730286e-05,-0.02936465036866985,0.36417169677160993,3.2026746198501597
1749296433184608512,0.0005843550541286979,-0.00021778048363281068,-3.6060284739730286e-05,-0.02936465036866985,0.36417169677160993,3.2026746198501597
1749296433189601280,0.0005843550541286979,-0.00021778048363281068,-3.6060284739730286e-05,-0.02936465036866985,0.36417169677160993,3.2026746198501597
1749296433194609408,0.0005843550541286979,-0.00021778048363281068,-3.6060284739730286e-05,-0.02936465036866985,0.36417169677160993,3.2026746198501597
1749296433199609088,0.0005843550541286979,-0.00021778048363281068,-3.6060284739730286e-05,-0.02936465036866985,0.36417169677160993,3.2026746198501597
1749296433204600576,0.0005843550541286979,-0.00021778048363281068,-3.6060284739730286e-05,-0.02936465036866985,0.36417169677160993,3.2026746198501597
1749296433209606912,0.0005843550541286979,-0.00021778048363281068,-3.6060284739730286e-05,-0.02936465036866985,0.36417169677160993,3.2026746198501597
1749296433214598144,0.0005843550541286979,-0.00021778048363281068,-3.6060284739730286e-05,-0.02936465036866985,0.36417169677160993,3.2026746198501597
1749296433219607808,0.0005843550541286979,-0.00021778048363281068,-3.6060284739730286e-05,-0.02936465036866985,0.36417169677160993,3.2026746198501597
1749296433224626432,0.0005843550541286979,-0.00021778048363281068,-3.6060284739730286e-05,-0.02936465036866985,0.36417169677160993,3.2026746198501597
1749296433229647104,0.0005843550541286979,-0.00021778048363281068,-3.6060284739730286e-05,-0.02936465036866985,0.36417169677160993,3.2026746198501597
1749296433241858304,0.0005843550541286979,-0.00021778048363281068,-3.6060284739730286e-05,-0.02936465036866985,0.36417169677160993,3.2026746198501597
1749296433242240768,0.0005843550541286979,-0.00021778048363281068,-3.6060284739730286e-05,-0.02936465036866985,0.36417169677160993,3.2026746198501597
1749296433244621824,0.0005843550541286979,-0.00021778048363281068,-3.6060284739730286e-05,-0.02936465036866985,0.36417169677160993,3.2026746198501597
1749296433249616384,0.0005843550541286979,-0.00021778048363281068,-3.6060284739730286e-05,-0.02936465036866985,0.36417169677160993,3.2026746198501597
1749296433254599424,0.0005843550541286979,-0.00021778048363281068,-3.6060284739730286e-05,-0.02936465036866985,0.36417169677160993,3.2026746198501597
1749296433259601920,0.0005843550541286979,-0.00021778048363281068,-3.6060284739730286e-05,-0.02936465036866985,0.36417169677160993,3.2026746198501597
1749296433264611840,0.0005843550541286979,-0.00021778048363281068,-3.6060284739730286e-05,-0.02936465036866985,0.36417169677160993,3.2026746198501597
1749296433269596928,0.0005843550541286979,-0.00021778048363281068,-3.6060284739730286e-05,-0.02936465036866985,0.36417169677160993,3.2026746198501597
1749296433274605568,0.0005843550541286979,-0.00021778048363281068,-3.6060284739730286e-05,-0.02936465036866985,0.36417169677160993,3.2026746198501597
1749296433279599104,0.0005843550541286979,-0.00021778048363281068,-3.6060284739730286e-05,-0.02936465036866985,0.36417169677160993,3.2026746198501597
1749296433284595456,0.0005843550541286979,-0.00021778048363281068,-3.6060284739730286e-05,-0.02936465036866985,0.36417169677160993,3.2026746198501597
1749296433289594368,0.0005843550541286979,-0.00021778048363281068,-3.6060284739730286e-05,-0.02936465036866985,0.36417169677160993,3.2026746198501597
1749296433294593792,0.0005843550541286979,-0.00021778048363281068,-3.6060284739730286e-05,-0.02936465036866985,0.36417169677160993,3.2026746198501597
1749296433299603712,0.0005843550541286979,-0.00021778048363281068,-3.6060284739730286e-05,-0.02936465036866985,0.36417169677160993,3.2026746198501597
1749296433304606720,0.0005843550541286979,-0.00021778048363281068,-3.6060284739730286e-05,-0.02936465036866985,0.36417169677160993,3.2026746198501597
1749296433309596416,0.0005843550541286979,-0.00021778048363281068,-3.6060284739730286e-05,-0.02936465036866985,0.36417169677160993,3.2026746198501597
1749296433314603776,0.0005843550541286979,-0.00021778048363281068,-3.6060284739730286e-05,-0.02936465036866985,0.36417169677160993,3.2026746198501597
1749296433319607296,0.0005843550541286979,-0.00021778048363281068,-3.6060284739730286e-05,-0.02936465036866985,0.36417169677160993,3.2026746198501597
1749296433324596736,0.0005843550541286979,-0.00021778048363281068,-3.6060284739730286e-05,-0.02936465036866985,0.36417169677160993,3.2026746198501597
1749296433330511872,0.0006598269998039657,-0.0002727632134054113,-0.000205187482019356,-0.030760446764427456,0.35438897442507317,3.2006602274321985
1749296433334601216,0.0006598269998039657,-0.0002727632134054113,-0.000205187482019356,-0.030760446764427456,0.35438897442507317,3.2006602274321985
1749296433339602176,0.0006598269998039657,-0.0002727632134054113,-0.000205187482019356,-0.030760446764427456,0.35438897442507317,3.2006602274321985
1749296433344618752,0.0006598269998039657,-0.0002727632134054113,-0.000205187482019356,-0.030760446764427456,0.35438897442507317,3.2006602274321985
1749296433349604864,0.0006598269998039657,-0.0002727632134054113,-0.000205187482019356,-0.030760446764427456,0.35438897442507317,3.2006602274321985
1749296433354600960,0.0006598269998039657,-0.0002727632134054113,-0.000205187482019356,-0.030760446764427456,0.35438897442507317,3.2006602274321985
1749296433359600128,0.0006598269998039657,-0.0002727632134054113,-0.000205187482019356,-0.030760446764427456,0.35438897442507317,3.2006602274321985
1749296433364610048,0.0006598269998039657,-0.0002727632134054113,-0.000205187482019356,-0.030760446764427456,0.35438897442507317,3.2006602274321985
1749296433369606400,0.0006598269998039657,-0.0002727632134054113,-0.000205187482019356,-0.030760446764427456,0.35438897442507317,3.2006602274321985
1749296433374597632,0.0006598269998039657,-0.0002727632134054113,-0.000205187482019356,-0.030760446764427456,0.35438897442507317,3.2006602274321985
1749296433379604224,0.0006598269998039657,-0.0002727632134054113,-0.000205187482019356,-0.030760446764427456,0.35438897442507317,3.2006602274321985
1749296433384622592,0.0006598269998039657,-0.0002727632134054113,-0.000205187482019356,-0.030760446764427456,0.35438897442507317,3.2006602274321985
1749296433389614848,0.0006598269998039657,-0.0002727632134054113,-0.000205187482019356,-0.030760446764427456,0.35438897442507317,3.2006602274321985
1749296433394617088,0.0006598269998039657,-0.0002727632134054113,-0.000205187482019356,-0.030760446764427456,0.35438897442507317,3.2006602274321985
1749296433399603712,0.0006598269998039657,-0.0002727632134054113,-0.000205187482019356,-0.030760446764427456,0.35438897442507317,3.2006602274321985
1749296433404604160,0.0006598269998039657,-0.0002727632134054113,-0.000205187482019356,-0.030760446764427456,0.35438897442507317,3.2006602274321985
1749296433409605376,0.0006598269998039657,-0.0002727632134054113,-0.000205187482019356,-0.030760446764427456,0.35438897442507317,3.2006602274321985
1749296433414619648,0.0006598269998039657,-0.0002727632134054113,-0.000205187482019356,-0.030760446764427456,0.35438897442507317,3.2006602274321985
1749296433419602688,0.0006598269998039657,-0.0002727632134054113,-0.000205187482019356,-0.030760446764427456,0.35438897442507317,3.2006602274321985
1749296433424598528,0.0006598269998039657,-0.0002727632134054113,-0.000205187482019356,-0.030760446764427456,0.35438897442507317,3.2006602274321985
1749296433429622016,0.0006598269998039657,-0.0002727632134054113,-0.000205187482019356,-0.030760446764427456,0.35438897442507317,3.2006602274321985
1749296433434605056,0.0006598269998039657,-0.0002727632134054113,-0.000205187482019356,-0.030760446764427456,0.35438897442507317,3.2006602274321985
1749296433439599104,0.0006598269998039657,-0.0002727632134054113,-0.000205187482019356,-0.030760446764427456,0.35438897442507317,3.2006602274321985
1749296433444604416,0.0006598269998039657,-0.0002727632134054113,-0.000205187482019356,-0.030760446764427456,0.35438897442507317,3.2006602274321985
1749296433449637632,0.0006459692916854378,-7.332216974189098e-05,3.885534771518144e-05,-0.029012796295354998,0.3619182583246319,3.202605316410992
1749296433454633216,0.0006459692916854378,-7.332216974189098e-05,3.885534771518144e-05,-0.029012796295354998,0.3619182583246319,3.202605316410992
1749296433459602688,0.0006459692916854378,-7.332216974189098e-05,3.885534771518144e-05,-0.029012796295354998,0.3619182583246319,3.202605316410992
1749296433464752896,0.0006459692916854378,-7.332216974189098e-05,3.885534771518144e-05,-0.029012796295354998,0.3619182583246319,3.202605316410992
1749296433469596160,0.0006459692916854378,-7.332216974189098e-05,3.885534771518144e-05,-0.029012796295354998,0.3619182583246319,3.202605316410992
1749296433474600448,0.0006459692916854378,-7.332216974189098e-05,3.885534771518144e-05,-0.029012796295354998,0.3619182583246319,3.202605316410992
1749296433479602176,0.0006459692916854378,-7.332216974189098e-05,3.885534771518144e-05,-0.029012796295354998,0.3619182583246319,3.202605316410992
1749296433484594176,0.0006459692916854378,-7.332216974189098e-05,3.885534771518144e-05,-0.029012796295354998,0.3619182583246319,3.202605316410992
1749296433489596672,0.0006459692916854378,-7.332216974189098e-05,3.885534771518144e-05,-0.029012796295354998,0.3619182583246319,3.202605316410992
1749296433494602496,0.0006459692916854378,-7.332216974189098e-05,3.885534771518144e-05,-0.029012796295354998,0.3619182583246319,3.202605316410992
1749296433499610624,0.0006459692916854378,-7.332216974189098e-05,3.885534771518144e-05,-0.029012796295354998,0.3619182583246319,3.202605316410992
1749296433504605696,0.0006459692916854378,-7.332216974189098e-05,3.885534771518144e-05,-0.029012796295354998,0.3619182583246319,3.202605316410992
1749296433509602816,0.0006459692916854378,-7.332216974189098e-05,3.885534771518144e-05,-0.029012796295354998,0.3619182583246319,3.202605316410992
1749296433514609152,0.0006459692916854378,-7.332216974189098e-05,3.885534771518144e-05,-0.029012796295354998,0.3619182583246319,3.202605316410992
1749296433519603456,0.0006459692916854378,-7.332216974189098e-05,3.885534771518144e-05,-0.029012796295354998,0.3619182583246319,3.202605316410992
1749296433524599808,0.0006459692916854378,-7.332216974189098e-05,3.885534771518144e-05,-0.029012796295354998,0.3619182583246319,3.202605316410992
1749296433529611520,0.0006459692916854378,-7.332216974189098e-05,3.885534771518144e-05,-0.029012796295354998,0.3619182583246319,3.202605316410992
1749296433534598912,0.0006459692916854378,-7.332216974189098e-05,3.885534771518144e-05,-0.029012796295354998,0.3619182583246319,3.202605316410992
1749296433539596032,0.0006459692916854378,-7.332216974189098e-05,3.885534771518144e-05,-0.029012796295354998,0.3619182583246319,3.202605316410992
1749296433544632320,0.0006459692916854378,-7.332216974189098e-05,3.885534771518144e-05,-0.029012796295354998,0.3619182583246319,3.202605316410992
1749296433549597952,0.0006459692916854378,-7.332216974189098e-05,3.885534771518144e-05,-0.029012796295354998,0.3619182583246319,3.202605316410992
1749296433554596864,0.0006459692916854378,-7.332216974189098e-05,3.885534771518144e-05,-0.029012796295354998,0.3619182583246319,3.202605316410992
1749296433559595264,0.0006459692916854378,-7.332216974189098e-05,3.885534771518144e-05,-0.029012796295354998,0.3619182583246319,3.202605316410992
1749296433564619264,0.0006459692916854378,-7.332216974189098e-05,3.885534771518144e-05,-0.029012796295354998,0.3619182583246319,3.202605316410992
1749296433577424128,0.0006459692916854378,-7.332216974189098e-05,3.885534771518144e-05,-0.029012796295354998,0.3619182583246319,3.202605316410992
1749296433577837824,0.0006459692916854378,-7.332216974189098e-05,3.885534771518144e-05,-0.029012796295354998,0.3619182583246319,3.202605316410992
1749296433579579392,0.0006459692916854378,-7.332216974189098e-05,3.885534771518144e-05,-0.029012796295354998,0.3619182583246319,3.202605316410992
1749296433584607232,0.0006459692916854378,-7.332216974189098e-05,3.885534771518144e-05,-0.029012796295354998,0.3619182583246319,3.202605316410992
1749296433589596928,0.0006459692916854378,-7.332216974189098e-05,3.885534771518144e-05,-0.029012796295354998,0.3619182583246319,3.202605316410992
1749296433594606336,0.0006459692916854378,-7.332216974189098e-05,3.885534771518144e-05,-0.029012796295354998,0.3619182583246319,3.202605316410992
1749296433599595776,0.0006459692916854378,-7.332216974189098e-05,3.885534771518144e-05,-0.029012796295354998,0.3619182583246319,3.202605316410992
1749296433604595712,0.0006459692916854378,-7.332216974189098e-05,3.885534771518144e-05,-0.029012796295354998,0.3619182583246319,3.202605316410992
1749296433609592576,0.0006459692916854378,-7.332216974189098e-05,3.885534771518144e-05,-0.029012796295354998,0.3619182583246319,3.202605316410992
1749296433614592000,0.0006459692916854378,-7.332216974189098e-05,3.885534771518144e-05,-0.029012796295354998,0.3619182583246319,3.202605316410992
1749296433619593984,0.0006459692916854378,-7.332216974189098e-05,3.885534771518144e-05,-0.029012796295354998,0.3619182583246319,3.202605316410992
1749296433624623616,0.0006459692916854378,-7.332216974189098e-05,3.885534771518144e-05,-0.029012796295354998,0.3619182583246319,3.202605316410992
1749296433629633792,0.0006459692916854378,-7.332216974189098e-05,3.885534771518144e-05,-0.029012796295354998,0.3619182583246319,3.202605316410992
1749296433634627840,0.0006459692916854378,-7.332216974189098e-05,3.885534771518144e-05,-0.029012796295354998,0.3619182583246319,3.202605316410992
1749296433639634688,0.0006459692916854378,-7.332216974189098e-05,3.885534771518144e-05,-0.029012796295354998,0.3619182583246319,3.202605316410992
1749296433644629760,0.0006459692916854378,-7.332216974189098e-05,3.885534771518144e-05,-0.029012796295354998,0.3619182583246319,3.202605316410992
1749296433649634048,0.0006459692916854378,-7.332216974189098e-05,3.885534771518144e-05,-0.029012796295354998,0.3619182583246319,3.202605316410992
1749296433654628096,0.0006459692916854378,-7.332216974189098e-05,3.885534771518144e-05,-0.029012796295354998,0.3619182583246319,3.202605316410992
1749296433659629824,0.0006459692916854378,-7.332216974189098e-05,3.885534771518144e-05,-0.029012796295354998,0.3619182583246319,3.202605316410992
1749296433664627968,0.0006459692916854378,-7.332216974189098e-05,3.885534771518144e-05,-0.029012796295354998,0.3619182583246319,3.202605316410992
1749296433669627904,0.0006311854270045895,-0.00018904446527902435,6.747301271217102e-05,-0.02997240287979384,0.3571988943659709,3.2007227940759866
1749296433674616064,0.0006311854270045895,-0.00018904446527902435,6.747301271217102e-05,-0.02997240287979384,0.3571988943659709,3.2007227940759866
1749296433679608576,0.0006311854270045895,-0.00018904446527902435,6.747301271217102e-05,-0.02997240287979384,0.3571988943659709,3.2007227940759866
1749296433684594432,0.0006311854270045895,-0.00018904446527902435,6.747301271217102e-05,-0.02997240287979384,0.3571988943659709,3.2007227940759866
1749296433689593344,0.0006311854270045895,-0.00018904446527902435,6.747301271217102e-05,-0.02997240287979384,0.3571988943659709,3.2007227940759866
1749296433694595584,0.0006311854270045895,-0.00018904446527902435,6.747301271217102e-05,-0.02997240287979384,0.3571988943659709,3.2007227940759866
1749296433699592704,0.0006311854270045895,-0.00018904446527902435,6.747301271217102e-05,-0.02997240287979384,0.3571988943659709,3.2007227940759866
1749296433704591616,0.0006311854270045895,-0.00018904446527902435,6.747301271217102e-05,-0.02997240287979384,0.3571988943659709,3.2007227940759866
1749296433709592320,0.0006311854270045895,-0.00018904446527902435,6.747301271217102e-05,-0.02997240287979384,0.3571988943659709,3.2007227940759866
1749296433714593536,0.0006311854270045895,-0.00018904446527902435,6.747301271217102e-05,-0.02997240287979384,0.3571988943659709,3.2007227940759866
1749296433719612160,0.0006311854270045895,-0.00018904446527902435,6.747301271217102e-05,-0.02997240287979384,0.3571988943659709,3.2007227940759866
1749296433724627200,0.0006311854270045895,-0.00018904446527902435,6.747301271217102e-05,-0.02997240287979384,0.3571988943659709,3.2007227940759866
1749296433729634304,0.0006311854270045895,-0.00018904446527902435,6.747301271217102e-05,-0.02997240287979384,0.3571988943659709,3.2007227940759866
1749296433734627328,0.0006311854270045895,-0.00018904446527902435,6.747301271217102e-05,-0.02997240287979384,0.3571988943659709,3.2007227940759866
1749296433739626752,0.0006311854270045895,-0.00018904446527902435,6.747301271217102e-05,-0.02997240287979384,0.3571988943659709,3.2007227940759866
1749296433744626688,0.0006311854270045895,-0.00018904446527902435,6.747301271217102e-05,-0.02997240287979384,0.3571988943659709,3.2007227940759866
1749296433749640192,0.0006311854270045895,-0.00018904446527902435,6.747301271217102e-05,-0.02997240287979384,0.3571988943659709,3.2007227940759866
1749296433754618368,0.0006311854270045895,-0.00018904446527902435,6.747301271217102e-05,-0.02997240287979384,0.3571988943659709,3.2007227940759866
1749296433759598848,0.0006311854270045895,-0.00018904446527902435,6.747301271217102e-05,-0.02997240287979384,0.3571988943659709,3.2007227940759866
1749296433764592896,0.0006311854270045895,-0.00018904446527902435,6.747301271217102e-05,-0.02997240287979384,0.3571988943659709,3.2007227940759866
1749296433769614848,0.0006311854270045895,-0.00018904446527902435,6.747301271217102e-05,-0.02997240287979384,0.3571988943659709,3.2007227940759866
1749296433774598656,0.0006311854270045895,-0.00018904446527902435,6.747301271217102e-05,-0.02997240287979384,0.3571988943659709,3.2007227940759866
1749296433779593216,0.0006311854270045895,-0.00018904446527902435,6.747301271217102e-05,-0.02997240287979384,0.3571988943659709,3.2007227940759866
1749296433786035968,0.0007173460358569641,-5.413031935737174e-05,0.0005421603544140847,-0.028465462910850784,0.3595635184661785,3.2022690429807223
1749296433789616640,0.0007173460358569641,-5.413031935737174e-05,0.0005421603544140847,-0.028465462910850784,0.3595635184661785,3.2022690429807223
1749296433794601216,0.0007173460358569641,-5.413031935737174e-05,0.0005421603544140847,-0.028465462910850784,0.3595635184661785,3.2022690429807223
1749296433799595008,0.0007173460358569641,-5.413031935737174e-05,0.0005421603544140847,-0.028465462910850784,0.3595635184661785,3.2022690429807223
1749296433804595200,0.0007173460358569641,-5.413031935737174e-05,0.0005421603544140847,-0.028465462910850784,0.3595635184661785,3.2022690429807223
1749296433809593856,0.0007173460358569641,-5.413031935737174e-05,0.0005421603544140847,-0.028465462910850784,0.3595635184661785,3.2022690429807223
1749296433814603264,0.0007173460358569641,-5.413031935737174e-05,0.0005421603544140847,-0.028465462910850784,0.3595635184661785,3.2022690429807223
1749296433819586560,0.0007173460358569641,-5.413031935737174e-05,0.0005421603544140847,-0.028465462910850784,0.3595635184661785,3.2022690429807223
1749296433824583680,0.0007173460358569641,-5.413031935737174e-05,0.0005421603544140847,-0.028465462910850784,0.3595635184661785,3.2022690429807223
1749296433829586944,0.0007173460358569641,-5.413031935737174e-05,0.0005421603544140847,-0.028465462910850784,0.3595635184661785,3.2022690429807223
1749296433834587136,0.0007173460358569641,-5.413031935737174e-05,0.0005421603544140847,-0.028465462910850784,0.3595635184661785,3.2022690429807223
1749296433839587328,0.0007173460358569641,-5.413031935737174e-05,0.0005421603544140847,-0.028465462910850784,0.3595635184661785,3.2022690429807223
1749296433844597248,0.0007173460358569641,-5.413031935737174e-05,0.0005421603544140847,-0.028465462910850784,0.3595635184661785,3.2022690429807223
1749296433849592832,0.0007173460358569641,-5.413031935737174e-05,0.0005421603544140847,-0.028465462910850784,0.3595635184661785,3.2022690429807223
1749296433854589184,0.0007173460358569641,-5.413031935737174e-05,0.0005421603544140847,-0.028465462910850784,0.3595635184661785,3.2022690429807223
1749296433859595776,0.0007173460358569641,-5.413031935737174e-05,0.0005421603544140847,-0.028465462910850784,0.3595635184661785,3.2022690429807223
1749296433864581376,0.0007173460358569641,-5.413031935737174e-05,0.0005421603544140847,-0.028465462910850784,0.3595635184661785,3.2022690429807223
1749296433869608960,0.0007173460358569641,-5.413031935737174e-05,0.0005421603544140847,-0.028465462910850784,0.3595635184661785,3.2022690429807223
1749296433874601216,0.0007173460358569641,-5.413031935737174e-05,0.0005421603544140847,-0.028465462910850784,0.3595635184661785,3.2022690429807223
1749296433879598592,0.0007173460358569641,-5.413031935737174e-05,0.0005421603544140847,-0.028465462910850784,0.3595635184661785,3.2022690429807223
1749296433884620032,0.0007173460358569641,-5.413031935737174e-05,0.0005421603544140847,-0.028465462910850784,0.3595635184661785,3.2022690429807223
1749296433889597696,0.0007173460358569641,-5.413031935737174e-05,0.0005421603544140847,-0.028465462910850784,0.3595635184661785,3.2022690429807223
1749296433894601984,0.0007173460358569641,-5.413031935737174e-05,0.0005421603544140847,-0.028465462910850784,0.3595635184661785,3.2022690429807223
1749296433899605248,0.0007173460358569641,-5.413031935737174e-05,0.0005421603544140847,-0.028465462910850784,0.3595635184661785,3.2022690429807223
1749296433909850368,0.0007173460358569641,-5.413031935737174e-05,0.0005421603544140847,-0.028465462910850784,0.3595635184661785,3.2022690429807223
1749296433910278656,0.0007173460358569641,-5.413031935737174e-05,0.0005421603544140847,-0.028465462910850784,0.3595635184661785,3.2022690429807223
1749296433914923264,0.0007173460358569641,-5.413031935737174e-05,0.0005421603544140847,-0.028465462910850784,0.3595635184661785,3.2022690429807223
1749296433919580672,0.0007173460358569641,-5.413031935737174e-05,0.0005421603544140847,-0.028465462910850784,0.3595635184661785,3.2022690429807223
1749296433924604672,0.0007173460358569641,-5.413031935737174e-05,0.0005421603544140847,-0.028465462910850784,0.3595635184661785,3.2022690429807223
1749296433929613056,0.0007173460358569641,-5.413031935737174e-05,0.0005421603544140847,-0.028465462910850784,0.3595635184661785,3.2022690429807223
1749296433934601728,0.0007173460358569641,-5.413031935737174e-05,0.0005421603544140847,-0.028465462910850784,0.3595635184661785,3.2022690429807223
1749296433939599616,0.0007173460358569641,-5.413031935737174e-05,0.0005421603544140847,-0.028465462910850784,0.3595635184661785,3.2022690429807223
1749296433944596224,0.0007173460358569641,-5.413031935737174e-05,0.0005421603544140847,-0.028465462910850784,0.3595635184661785,3.2022690429807223
1749296433949619712,0.0007173460358569641,-5.413031935737174e-05,0.0005421603544140847,-0.028465462910850784,0.3595635184661785,3.2022690429807223
1749296433954631424,0.0007173460358569641,-5.413031935737174e-05,0.0005421603544140847,-0.028465462910850784,0.3595635184661785,3.2022690429807223
1749296433959627008,0.0007173460358569641,-5.413031935737174e-05,0.0005421603544140847,-0.028465462910850784,0.3595635184661785,3.2022690429807223
1749296433964627200,0.0007173460358569641,-5.413031935737174e-05,0.0005421603544140847,-0.028465462910850784,0.3595635184661785,3.2022690429807223
1749296433969626880,0.0007173460358569641,-5.413031935737174e-05,0.0005421603544140847,-0.028465462910850784,0.3595635184661785,3.2022690429807223
1749296433974632704,0.0007173460358569641,-5.413031935737174e-05,0.0005421603544140847,-0.028465462910850784,0.3595635184661785,3.2022690429807223
1749296433979627264,0.0007173460358569641,-5.413031935737174e-05,0.0005421603544140847,-0.028465462910850784,0.3595635184661785,3.2022690429807223
1749296433984626944,0.0007173460358569641,-5.413031935737174e-05,0.0005421603544140847,-0.028465462910850784,0.3595635184661785,3.2022690429807223
1749296433989626880,0.0007173460358569641,-5.413031935737174e-05,0.0005421603544140847,-0.028465462910850784,0.3595635184661785,3.2022690429807223
1749296433994628096,0.0007173460358569641,-5.413031935737174e-05,0.0005421603544140847,-0.028465462910850784,0.3595635184661785,3.2022690429807223
1749296433999638528,0.0006959157648454377,-0.00018251699493558224,-4.422473364267724e-05,-0.03030541141340722,0.36018864087924424,3.200723678916811
1749296434004601856,0.0006959157648454377,-0.00018251699493558224,-4.422473364267724e-05,-0.03030541141340722,0.36018864087924424,3.200723678916811
1749296434009614336,0.0006959157648454377,-0.00018251699493558224,-4.422473364267724e-05,-0.03030541141340722,0.36018864087924424,3.200723678916811
1749296434014597376,0.0006959157648454377,-0.00018251699493558224,-4.422473364267724e-05,-0.03030541141340722,0.36018864087924424,3.200723678916811
1749296434019624960,0.0006959157648454377,-0.00018251699493558224,-4.422473364267724e-05,-0.03030541141340722,0.36018864087924424,3.200723678916811
1749296434024626688,0.0006959157648454377,-0.00018251699493558224,-4.422473364267724e-05,-0.03030541141340722,0.36018864087924424,3.200723678916811
1749296434029627136,0.0006959157648454377,-0.00018251699493558224,-4.422473364267724e-05,-0.03030541141340722,0.36018864087924424,3.200723678916811
1749296434034627328,0.0006959157648454377,-0.00018251699493558224,-4.422473364267724e-05,-0.03030541141340722,0.36018864087924424,3.200723678916811
1749296434039627520,0.0006959157648454377,-0.00018251699493558224,-4.422473364267724e-05,-0.03030541141340722,0.36018864087924424,3.200723678916811
1749296434044633344,0.0006959157648454377,-0.00018251699493558224,-4.422473364267724e-05,-0.03030541141340722,0.36018864087924424,3.200723678916811
1749296434049626880,0.0006959157648454377,-0.00018251699493558224,-4.422473364267724e-05,-0.03030541141340722,0.36018864087924424,3.200723678916811
1749296434054634496,0.0006959157648454377,-0.00018251699493558224,-4.422473364267724e-05,-0.03030541141340722,0.36018864087924424,3.200723678916811
1749296434059627776,0.0006959157648454377,-0.00018251699493558224,-4.422473364267724e-05,-0.03030541141340722,0.36018864087924424,3.200723678916811
1749296434064634368,0.0006959157648454377,-0.00018251699493558224,-4.422473364267724e-05,-0.03030541141340722,0.36018864087924424,3.200723678916811
1749296434069627648,0.0006959157648454377,-0.00018251699493558224,-4.422473364267724e-05,-0.03030541141340722,0.36018864087924424,3.200723678916811
1749296434074634752,0.0006959157648454377,-0.00018251699493558224,-4.422473364267724e-05,-0.03030541141340722,0.36018864087924424,3.200723678916811
1749296434079633152,0.0006959157648454377,-0.00018251699493558224,-4.422473364267724e-05,-0.03030541141340722,0.36018864087924424,3.200723678916811
1749296434084619008,0.0006959157648454377,-0.00018251699493558224,-4.422473364267724e-05,-0.03030541141340722,0.36018864087924424,3.200723678916811
1749296434089598720,0.0006959157648454377,-0.00018251699493558224,-4.422473364267724e-05,-0.03030541141340722,0.36018864087924424,3.200723678916811
1749296434094599680,0.0006959157648454377,-0.00018251699493558224,-4.422473364267724e-05,-0.03030541141340722,0.36018864087924424,3.200723678916811
1749296434099598080,0.0006959157648454377,-0.00018251699493558224,-4.422473364267724e-05,-0.03030541141340722,0.36018864087924424,3.200723678916811
1749296434104592896,0.0006959157648454377,-0.00018251699493558224,-4.422473364267724e-05,-0.03030541141340722,0.36018864087924424,3.200723678916811
1749296434109591040,0.0006959157648454377,-0.00018251699493558224,-4.422473364267724e-05,-0.03030541141340722,0.36018864087924424,3.200723678916811
1749296434114641664,0.0007598615851735195,-0.00017277430077205597,6.773203758312447e-05,-0.030175010801495553,0.35672897549791016,3.2017056792955385
1749296434119630848,0.0007598615851735195,-0.00017277430077205597,6.773203758312447e-05,-0.030175010801495553,0.35672897549791016,3.2017056792955385
1749296434124596992,0.0007598615851735195,-0.00017277430077205597,6.773203758312447e-05,-0.030175010801495553,0.35672897549791016,3.2017056792955385
1749296434129592320,0.0007598615851735195,-0.00017277430077205597,6.773203758312447e-05,-0.030175010801495553,0.35672897549791016,3.2017056792955385
1749296434134589952,0.0007598615851735195,-0.00017277430077205597,6.773203758312447e-05,-0.030175010801495553,0.35672897549791016,3.2017056792955385
1749296434139594752,0.0007598615851735195,-0.00017277430077205597,6.773203758312447e-05,-0.030175010801495553,0.35672897549791016,3.2017056792955385
1749296434144601344,0.0007598615851735195,-0.00017277430077205597,6.773203758312447e-05,-0.030175010801495553,0.35672897549791016,3.2017056792955385
1749296434149599488,0.0007598615851735195,-0.00017277430077205597,6.773203758312447e-05,-0.030175010801495553,0.35672897549791016,3.2017056792955385
1749296434154601216,0.0007598615851735195,-0.00017277430077205597,6.773203758312447e-05,-0.030175010801495553,0.35672897549791016,3.2017056792955385
1749296434159602176,0.0007598615851735195,-0.00017277430077205597,6.773203758312447e-05,-0.030175010801495553,0.35672897549791016,3.2017056792955385
1749296434164600832,0.0007598615851735195,-0.00017277430077205597,6.773203758312447e-05,-0.030175010801495553,0.35672897549791016,3.2017056792955385
1749296434169595392,0.0007598615851735195,-0.00017277430077205597,6.773203758312447e-05,-0.030175010801495553,0.35672897549791016,3.2017056792955385
1749296434174605056,0.0007598615851735195,-0.00017277430077205597,6.773203758312447e-05,-0.030175010801495553,0.35672897549791016,3.2017056792955385
1749296434179608320,0.0007598615851735195,-0.00017277430077205597,6.773203758312447e-05,-0.030175010801495553,0.35672897549791016,3.2017056792955385
1749296434184600832,0.0007598615851735195,-0.00017277430077205597,6.773203758312447e-05,-0.030175010801495553,0.35672897549791016,3.2017056792955385
1749296434189601792,0.0007598615851735195,-0.00017277430077205597,6.773203758312447e-05,-0.030175010801495553,0.35672897549791016,3.2017056792955385
1749296434194634496,0.0007598615851735195,-0.00017277430077205597,6.773203758312447e-05,-0.030175010801495553,0.35672897549791016,3.2017056792955385
1749296434199612416,0.0007598615851735195,-0.00017277430077205597,6.773203758312447e-05,-0.030175010801495553,0.35672897549791016,3.2017056792955385
1749296434204601600,0.0007598615851735195,-0.00017277430077205597,6.773203758312447e-05,-0.030175010801495553,0.35672897549791016,3.2017056792955385
1749296434209600768,0.0007598615851735195,-0.00017277430077205597,6.773203758312447e-05,-0.030175010801495553,0.35672897549791016,3.2017056792955385
1749296434214600448,0.0007598615851735195,-0.00017277430077205597,6.773203758312447e-05,-0.030175010801495553,0.35672897549791016,3.2017056792955385
1749296434219598848,0.0007598615851735195,-0.00017277430077205597,6.773203758312447e-05,-0.030175010801495553,0.35672897549791016,3.2017056792955385
1749296434224633088,0.0007598615851735195,-0.00017277430077205597,6.773203758312447e-05,-0.030175010801495553,0.35672897549791016,3.2017056792955385
1749296434229672704,0.0007598615851735195,-0.00017277430077205597,6.773203758312447e-05,-0.030175010801495553,0.35672897549791016,3.2017056792955385
1749296434239712256,0.0007598615851735195,-0.00017277430077205597,6.773203758312447e-05,-0.030175010801495553,0.35672897549791016,3.2017056792955385
1749296434239845376,0.0007598615851735195,-0.00017277430077205597,6.773203758312447e-05,-0.030175010801495553,0.35672897549791016,3.2017056792955385
1749296434244619520,0.0007598615851735195,-0.00017277430077205597,6.773203758312447e-05,-0.030175010801495553,0.35672897549791016,3.2017056792955385
1749296434249599744,0.0007598615851735195,-0.00017277430077205597,6.773203758312447e-05,-0.030175010801495553,0.35672897549791016,3.2017056792955385
1749296434254596608,0.0007598615851735195,-0.00017277430077205597,6.773203758312447e-05,-0.030175010801495553,0.35672897549791016,3.2017056792955385
1749296434259594752,0.0007598615851735195,-0.00017277430077205597,6.773203758312447e-05,-0.030175010801495553,0.35672897549791016,3.2017056792955385
1749296434264593664,0.0007598615851735195,-0.00017277430077205597,6.773203758312447e-05,-0.030175010801495553,0.35672897549791016,3.2017056792955385
1749296434269612800,0.0007598615851735195,-0.00017277430077205597,6.773203758312447e-05,-0.030175010801495553,0.35672897549791016,3.2017056792955385
1749296434274605056,0.0007598615851735195,-0.00017277430077205597,6.773203758312447e-05,-0.030175010801495553,0.35672897549791016,3.2017056792955385
1749296434279603200,0.0007598615851735195,-0.00017277430077205597,6.773203758312447e-05,-0.030175010801495553,0.35672897549791016,3.2017056792955385
1749296434284598784,0.0007598615851735195,-0.00017277430077205597,6.773203758312447e-05,-0.030175010801495553,0.35672897549791016,3.2017056792955385
1749296434289601536,0.0007598615851735195,-0.00017277430077205597,6.773203758312447e-05,-0.030175010801495553,0.35672897549791016,3.2017056792955385
1749296434294599424,0.0007598615851735195,-0.00017277430077205597,6.773203758312447e-05,-0.030175010801495553,0.35672897549791016,3.2017056792955385
1749296434299599104,0.0007598615851735195,-0.00017277430077205597,6.773203758312447e-05,-0.030175010801495553,0.35672897549791016,3.2017056792955385
1749296434304596736,0.0007598615851735195,-0.00017277430077205597,6.773203758312447e-05,-0.030175010801495553,0.35672897549791016,3.2017056792955385
1749296434309593088,0.0007598615851735195,-0.00017277430077205597,6.773203758312447e-05,-0.030175010801495553,0.35672897549791016,3.2017056792955385
1749296434314599680,0.0007598615851735195,-0.00017277430077205597,6.773203758312447e-05,-0.030175010801495553,0.35672897549791016,3.2017056792955385
1749296434319605504,0.0007598615851735195,-0.00017277430077205597,6.773203758312447e-05,-0.030175010801495553,0.35672897549791016,3.2017056792955385
1749296434324599552,0.0007598615851735195,-0.00017277430077205597,6.773203758312447e-05,-0.030175010801495553,0.35672897549791016,3.2017056792955385
1749296434329617664,0.0005917951674657308,-8.262222952423546e-05,0.0002571194696429819,-0.030122655701720142,0.35860940454881135,3.202552016861622
1749296434334595584,0.0005917951674657308,-8.262222952423546e-05,0.0002571194696429819,-0.030122655701720142,0.35860940454881135,3.202552016861622
1749296434339600128,0.0005917951674657308,-8.262222952423546e-05,0.0002571194696429819,-0.030122655701720142,0.35860940454881135,3.202552016861622
1749296434344605184,0.0005917951674657308,-8.262222952423546e-05,0.0002571194696429819,-0.030122655701720142,0.35860940454881135,3.202552016861622
1749296434349597184,0.0005917951674657308,-8.262222952423546e-05,0.0002571194696429819,-0.030122655701720142,0.35860940454881135,3.202552016861622
1749296434354598912,0.0005917951674657308,-8.262222952423546e-05,0.0002571194696429819,-0.030122655701720142,0.35860940454881135,3.202552016861622
1749296434359600384,0.0005917951674657308,-8.262222952423546e-05,0.0002571194696429819,-0.030122655701720142,0.35860940454881135,3.202552016861622
1749296434364599808,0.0005917951674657308,-8.262222952423546e-05,0.0002571194696429819,-0.030122655701720142,0.35860940454881135,3.202552016861622
1749296434369608960,0.0005917951674657308,-8.262222952423546e-05,0.0002571194696429819,-0.030122655701720142,0.35860940454881135,3.202552016861622
1749296434374607104,0.0005917951674657308,-8.262222952423546e-05,0.0002571194696429819,-0.030122655701720142,0.35860940454881135,3.202552016861622
1749296434379602944,0.0005917951674657308,-8.262222952423546e-05,0.0002571194696429819,-0.030122655701720142,0.35860940454881135,3.202552016861622
1749296434384601600,0.0005917951674657308,-8.262222952423546e-05,0.0002571194696429819,-0.030122655701720142,0.35860940454881135,3.202552016861622
1749296434389598720,0.0005917951674657308,-8.262222952423546e-05,0.0002571194696429819,-0.030122655701720142,0.35860940454881135,3.202552016861622
1749296434394606080,0.0005917951674657308,-8.262222952423546e-05,0.0002571194696429819,-0.030122655701720142,0.35860940454881135,3.202552016861622
1749296434399596032,0.0005917951674657308,-8.262222952423546e-05,0.0002571194696429819,-0.030122655701720142,0.35860940454881135,3.202552016861622
1749296434404593664,0.0005917951674657308,-8.262222952423546e-05,0.0002571194696429819,-0.030122655701720142,0.35860940454881135,3.202552016861622
1749296434409614848,0.0005917951674657308,-8.262222952423546e-05,0.0002571194696429819,-0.030122655701720142,0.35860940454881135,3.202552016861622
1749296434414606080,0.0005917951674657308,-8.262222952423546e-05,0.0002571194696429819,-0.030122655701720142,0.35860940454881135,3.202552016861622
1749296434419597056,0.0005917951674657308,-8.262222952423546e-05,0.0002571194696429819,-0.030122655701720142,0.35860940454881135,3.202552016861622
1749296434424603648,0.0005917951674657308,-8.262222952423546e-05,0.0002571194696429819,-0.030122655701720142,0.35860940454881135,3.202552016861622
1749296434429604352,0.0005917951674657308,-8.262222952423546e-05,0.0002571194696429819,-0.030122655701720142,0.35860940454881135,3.202552016861622
1749296434434617344,0.0005917951674657308,-8.262222952423546e-05,0.0002571194696429819,-0.030122655701720142,0.35860940454881135,3.202552016861622
1749296434439604480,0.0005917951674657308,-8.262222952423546e-05,0.0002571194696429819,-0.030122655701720142,0.35860940454881135,3.202552016861622
1749296434444625664,0.0008296395083987673,-0.0002343451512076316,0.0003434150741038723,-0.028802579232267814,0.35754644367329674,3.2007636409975513
1749296434449595392,0.0008296395083987673,-0.0002343451512076316,0.0003434150741038723,-0.028802579232267814,0.35754644367329674,3.2007636409975513
1749296434454593536,0.0008296395083987673,-0.0002343451512076316,0.0003434150741038723,-0.028802579232267814,0.35754644367329674,3.2007636409975513
1749296434459588864,0.0008296395083987673,-0.0002343451512076316,0.0003434150741038723,-0.028802579232267814,0.35754644367329674,3.2007636409975513
1749296434464629248,0.0008296395083987673,-0.0002343451512076316,0.0003434150741038723,-0.028802579232267814,0.35754644367329674,3.2007636409975513
1749296434469598208,0.0008296395083987673,-0.0002343451512076316,0.0003434150741038723,-0.028802579232267814,0.35754644367329674,3.2007636409975513
1749296434474624000,0.0008296395083987673,-0.0002343451512076316,0.0003434150741038723,-0.028802579232267814,0.35754644367329674,3.2007636409975513
1749296434479598848,0.0008296395083987673,-0.0002343451512076316,0.0003434150741038723,-0.028802579232267814,0.35754644367329674,3.2007636409975513
1749296434484582144,0.0008296395083987673,-0.0002343451512076316,0.0003434150741038723,-0.028802579232267814,0.35754644367329674,3.2007636409975513
1749296434489581056,0.0008296395083987673,-0.0002343451512076316,0.0003434150741038723,-0.028802579232267814,0.35754644367329674,3.2007636409975513
1749296434494587392,0.0008296395083987673,-0.0002343451512076316,0.0003434150741038723,-0.028802579232267814,0.35754644367329674,3.2007636409975513
1749296434499587584,0.0008296395083987673,-0.0002343451512076316,0.0003434150741038723,-0.028802579232267814,0.35754644367329674,3.2007636409975513
1749296434504587008,0.0008296395083987673,-0.0002343451512076316,0.0003434150741038723,-0.028802579232267814,0.35754644367329674,3.2007636409975513
1749296434509586176,0.0008296395083987673,-0.0002343451512076316,0.0003434150741038723,-0.028802579232267814,0.35754644367329674,3.2007636409975513
1749296434514586112,0.0008296395083987673,-0.0002343451512076316,0.0003434150741038723,-0.028802579232267814,0.35754644367329674,3.2007636409975513
1749296434519586048,0.0008296395083987673,-0.0002343451512076316,0.0003434150741038723,-0.028802579232267814,0.35754644367329674,3.2007636409975513
1749296434524586496,0.0008296395083987673,-0.0002343451512076316,0.0003434150741038723,-0.028802579232267814,0.35754644367329674,3.2007636409975513
1749296434529595648,0.0008296395083987673,-0.0002343451512076316,0.0003434150741038723,-0.028802579232267814,0.35754644367329674,3.2007636409975513
1749296434534597376,0.0008296395083987673,-0.0002343451512076316,0.0003434150741038723,-0.028802579232267814,0.35754644367329674,3.2007636409975513
1749296434539591168,0.0008296395083987673,-0.0002343451512076316,0.0003434150741038723,-0.028802579232267814,0.35754644367329674,3.2007636409975513
1749296434544583936,0.0008296395083987673,-0.0002343451512076316,0.0003434150741038723,-0.028802579232267814,0.35754644367329674,3.2007636409975513
1749296434549589248,0.0008296395083987673,-0.0002343451512076316,0.0003434150741038723,-0.028802579232267814,0.35754644367329674,3.2007636409975513
1749296434554584832,0.0008296395083987673,-0.0002343451512076316,0.0003434150741038723,-0.028802579232267814,0.35754644367329674,3.2007636409975513
1749296434559589632,0.0008296395083987673,-0.0002343451512076316,0.0003434150741038723,-0.028802579232267814,0.35754644367329674,3.2007636409975513
1749296434564601088,0.0008296395083987673,-0.0002343451512076316,0.0003434150741038723,-0.028802579232267814,0.35754644367329674,3.2007636409975513
1749296434575839488,0.0008296395083987673,-0.0002343451512076316,0.0003434150741038723,-0.028802579232267814,0.35754644367329674,3.2007636409975513
1749296434576158720,0.0008296395083987673,-0.0002343451512076316,0.0003434150741038723,-0.028802579232267814,0.35754644367329674,3.2007636409975513
1749296434579596544,0.0008296395083987673,-0.0002343451512076316,0.0003434150741038723,-0.028802579232267814,0.35754644367329674,3.2007636409975513
1749296434584607232,0.0008296395083987673,-0.0002343451512076316,0.0003434150741038723,-0.028802579232267814,0.35754644367329674,3.2007636409975513
1749296434589598464,0.0008296395083987673,-0.0002343451512076316,0.0003434150741038723,-0.028802579232267814,0.35754644367329674,3.2007636409975513
1749296434594597120,0.0008296395083987673,-0.0002343451512076316,0.0003434150741038723,-0.028802579232267814,0.35754644367329674,3.2007636409975513
1749296434599597056,0.0008296395083987673,-0.0002343451512076316,0.0003434150741038723,-0.028802579232267814,0.35754644367329674,3.2007636409975513
1749296434604597248,0.0008296395083987673,-0.0002343451512076316,0.0003434150741038723,-0.028802579232267814,0.35754644367329674,3.2007636409975513
1749296434609600000,0.0008296395083987673,-0.0002343451512076316,0.0003434150741038723,-0.028802579232267814,0.35754644367329674,3.2007636409975513
1749296434614596608,0.0008296395083987673,-0.0002343451512076316,0.0003434150741038723,-0.028802579232267814,0.35754644367329674,3.2007636409975513
1749296434619596288,0.0008296395083987673,-0.0002343451512076316,0.0003434150741038723,-0.028802579232267814,0.35754644367329674,3.2007636409975513
1749296434624596224,0.0008296395083987673,-0.0002343451512076316,0.0003434150741038723,-0.028802579232267814,0.35754644367329674,3.2007636409975513
1749296434629592832,0.0008296395083987673,-0.0002343451512076316,0.0003434150741038723,-0.028802579232267814,0.35754644367329674,3.2007636409975513
1749296434634597888,0.0008296395083987673,-0.0002343451512076316,0.0003434150741038723,-0.028802579232267814,0.35754644367329674,3.2007636409975513
1749296434639601664,0.0008296395083987673,-0.0002343451512076316,0.0003434150741038723,-0.028802579232267814,0.35754644367329674,3.2007636409975513
1749296434644595712,0.0008296395083987673,-0.0002343451512076316,0.0003434150741038723,-0.028802579232267814,0.35754644367329674,3.2007636409975513
1749296434649599232,0.0008296395083987673,-0.0002343451512076316,0.0003434150741038723,-0.028802579232267814,0.35754644367329674,3.2007636409975513
1749296434654596352,0.0008296395083987673,-0.0002343451512076316,0.0003434150741038723,-0.028802579232267814,0.35754644367329674,3.2007636409975513
1749296434659626240,0.0008296395083987673,-0.0002343451512076316,0.0003434150741038723,-0.028802579232267814,0.35754644367329674,3.2007636409975513
1749296434666825472,0.0008137992241459957,-0.00013326778484716676,0.00028828482196996863,-0.029019319297203056,0.35837802998382406,3.2020381963336604
1749296434669614848,0.0008137992241459957,-0.00013326778484716676,0.00028828482196996863,-0.029019319297203056,0.35837802998382406,3.2020381963336604
1749296434674602752,0.0008137992241459957,-0.00013326778484716676,0.00028828482196996863,-0.029019319297203056,0.35837802998382406,3.2020381963336604
1749296434679613696,0.0008137992241459957,-0.00013326778484716676,0.00028828482196996863,-0.029019319297203056,0.35837802998382406,3.2020381963336604
1749296434684610560,0.0008137992241459957,-0.00013326778484716676,0.00028828482196996863,-0.029019319297203056,0.35837802998382406,3.2020381963336604
1749296434689595904,0.0008137992241459957,-0.00013326778484716676,0.00028828482196996863,-0.029019319297203056,0.35837802998382406,3.2020381963336604
1749296434694582784,0.0008137992241459957,-0.00013326778484716676,0.00028828482196996863,-0.029019319297203056,0.35837802998382406,3.2020381963336604
1749296434699605504,0.0008137992241459957,-0.00013326778484716676,0.00028828482196996863,-0.029019319297203056,0.35837802998382406,3.2020381963336604
1749296434704603648,0.0008137992241459957,-0.00013326778484716676,0.00028828482196996863,-0.029019319297203056,0.35837802998382406,3.2020381963336604
1749296434709603840,0.0008137992241459957,-0.00013326778484716676,0.00028828482196996863,-0.029019319297203056,0.35837802998382406,3.2020381963336604
1749296434714619136,0.0008137992241459957,-0.00013326778484716676,0.00028828482196996863,-0.029019319297203056,0.35837802998382406,3.2020381963336604
1749296434719620864,0.0008137992241459957,-0.00013326778484716676,0.00028828482196996863,-0.029019319297203056,0.35837802998382406,3.2020381963336604
1749296434724616960,0.0008137992241459957,-0.00013326778484716676,0.00028828482196996863,-0.029019319297203056,0.35837802998382406,3.2020381963336604
1749296434729597696,0.0008137992241459957,-0.00013326778484716676,0.00028828482196996863,-0.029019319297203056,0.35837802998382406,3.2020381963336604
1749296434734626560,0.0008137992241459957,-0.00013326778484716676,0.00028828482196996863,-0.029019319297203056,0.35837802998382406,3.2020381963336604
1749296434739606016,0.0008137992241459957,-0.00013326778484716676,0.00028828482196996863,-0.029019319297203056,0.35837802998382406,3.2020381963336604
1749296434744595456,0.0008137992241459957,-0.00013326778484716676,0.00028828482196996863,-0.029019319297203056,0.35837802998382406,3.2020381963336604
1749296434749614080,0.0008137992241459957,-0.00013326778484716676,0.00028828482196996863,-0.029019319297203056,0.35837802998382406,3.2020381963336604
1749296434754605312,0.0008137992241459957,-0.00013326778484716676,0.00028828482196996863,-0.029019319297203056,0.35837802998382406,3.2020381963336604
1749296434759598848,0.0008137992241459957,-0.00013326778484716676,0.00028828482196996863,-0.029019319297203056,0.35837802998382406,3.2020381963336604
1749296434764605440,0.0008137992241459957,-0.00013326778484716676,0.00028828482196996863,-0.029019319297203056,0.35837802998382406,3.2020381963336604
1749296434769612800,0.0008137992241459957,-0.00013326778484716676,0.00028828482196996863,-0.029019319297203056,0.35837802998382406,3.2020381963336604
1749296434774598656,0.0008137992241459957,-0.00013326778484716676,0.00028828482196996863,-0.029019319297203056,0.35837802998382406,3.2020381963336604
1749296434779593984,0.0008137992241459957,-0.00013326778484716676,0.00028828482196996863,-0.029019319297203056,0.35837802998382406,3.2020381963336604
1749296434786962176,0.0013356229629124037,-0.00028895752909551957,0.00024007316972084812,-0.029177239279275,0.35414003108879727,3.199669981559299
1749296434789621248,0.0013356229629124037,-0.00028895752909551957,0.00024007316972084812,-0.029177239279275,0.35414003108879727,3.199669981559299
1749296434794602240,0.0013356229629124037,-0.00028895752909551957,0.00024007316972084812,-0.029177239279275,0.35414003108879727,3.199669981559299
1749296434799594752,0.0013356229629124037,-0.00028895752909551957,0.00024007316972084812,-0.029177239279275,0.35414003108879727,3.199669981559299
1749296434804600576,0.0013356229629124037,-0.00028895752909551957,0.00024007316972084812,-0.029177239279275,0.35414003108879727,3.199669981559299
1749296434809599232,0.0013356229629124037,-0.00028895752909551957,0.00024007316972084812,-0.029177239279275,0.35414003108879727,3.199669981559299
1749296434814608128,0.0013356229629124037,-0.00028895752909551957,0.00024007316972084812,-0.029177239279275,0.35414003108879727,3.199669981559299
1749296434819588608,0.0013356229629124037,-0.00028895752909551957,0.00024007316972084812,-0.029177239279275,0.35414003108879727,3.199669981559299
1749296434824589568,0.0013356229629124037,-0.00028895752909551957,0.00024007316972084812,-0.029177239279275,0.35414003108879727,3.199669981559299
1749296434829606656,0.0013356229629124037,-0.00028895752909551957,0.00024007316972084812,-0.029177239279275,0.35414003108879727,3.199669981559299
1749296434834605056,0.0013356229629124037,-0.00028895752909551957,0.00024007316972084812,-0.029177239279275,0.35414003108879727,3.199669981559299
1749296434839602944,0.0013356229629124037,-0.00028895752909551957,0.00024007316972084812,-0.029177239279275,0.35414003108879727,3.199669981559299
1749296434844605440,0.0013356229629124037,-0.00028895752909551957,0.00024007316972084812,-0.029177239279275,0.35414003108879727,3.199669981559299
1749296434849612032,0.0013356229629124037,-0.00028895752909551957,0.00024007316972084812,-0.029177239279275,0.35414003108879727,3.199669981559299
1749296434854599424,0.0013356229629124037,-0.00028895752909551957,0.00024007316972084812,-0.029177239279275,0.35414003108879727,3.199669981559299
1749296434859604224,0.0013356229629124037,-0.00028895752909551957,0.00024007316972084812,-0.029177239279275,0.35414003108879727,3.199669981559299
1749296434864601344,0.0013356229629124037,-0.00028895752909551957,0.00024007316972084812,-0.029177239279275,0.35414003108879727,3.199669981559299
1749296434869615616,0.0013356229629124037,-0.00028895752909551957,0.00024007316972084812,-0.029177239279275,0.35414003108879727,3.199669981559299
1749296434874614528,0.0013356229629124037,-0.00028895752909551957,0.00024007316972084812,-0.029177239279275,0.35414003108879727,3.199669981559299
1749296434879606016,0.0013356229629124037,-0.00028895752909551957,0.00024007316972084812,-0.029177239279275,0.35414003108879727,3.199669981559299
1749296434884604416,0.0013356229629124037,-0.00028895752909551957,0.00024007316972084812,-0.029177239279275,0.35414003108879727,3.199669981559299
1749296434889617408,0.0013356229629124037,-0.00028895752909551957,0.00024007316972084812,-0.029177239279275,0.35414003108879727,3.199669981559299
1749296434894603008,0.0013356229629124037,-0.00028895752909551957,0.00024007316972084812,-0.029177239279275,0.35414003108879727,3.199669981559299
1749296434899607040,0.0013356229629124037,-0.00028895752909551957,0.00024007316972084812,-0.029177239279275,0.35414003108879727,3.199669981559299
1749296434911469312,0.0013356229629124037,-0.00028895752909551957,0.00024007316972084812,-0.029177239279275,0.35414003108879727,3.199669981559299
1749296434911845376,0.0013356229629124037,-0.00028895752909551957,0.00024007316972084812,-0.029177239279275,0.35414003108879727,3.199669981559299
1749296434914609920,0.0013356229629124037,-0.00028895752909551957,0.00024007316972084812,-0.029177239279275,0.35414003108879727,3.199669981559299
1749296434919604480,0.0013356229629124037,-0.00028895752909551957,0.00024007316972084812,-0.029177239279275,0.35414003108879727,3.199669981559299
1749296434924599296,0.0013356229629124037,-0.00028895752909551957,0.00024007316972084812,-0.029177239279275,0.35414003108879727,3.199669981559299
1749296434929610240,0.0013356229629124037,-0.00028895752909551957,0.00024007316972084812,-0.029177239279275,0.35414003108879727,3.199669981559299
1749296434934596096,0.0013356229629124037,-0.00028895752909551957,0.00024007316972084812,-0.029177239279275,0.35414003108879727,3.199669981559299
1749296434939592960,0.0013356229629124037,-0.00028895752909551957,0.00024007316972084812,-0.029177239279275,0.35414003108879727,3.199669981559299
1749296434944598528,0.0013356229629124037,-0.00028895752909551957,0.00024007316972084812,-0.029177239279275,0.35414003108879727,3.199669981559299
1749296434949595648,0.0013356229629124037,-0.00028895752909551957,0.00024007316972084812,-0.029177239279275,0.35414003108879727,3.199669981559299
1749296434954598912,0.0013356229629124037,-0.00028895752909551957,0.00024007316972084812,-0.029177239279275,0.35414003108879727,3.199669981559299
1749296434959595264,0.0013356229629124037,-0.00028895752909551957,0.00024007316972084812,-0.029177239279275,0.35414003108879727,3.199669981559299
1749296434964597248,0.0013356229629124037,-0.00028895752909551957,0.00024007316972084812,-0.029177239279275,0.35414003108879727,3.199669981559299
1749296434969611520,0.0013356229629124037,-0.00028895752909551957,0.00024007316972084812,-0.029177239279275,0.35414003108879727,3.199669981559299
1749296434974607104,0.0013356229629124037,-0.00028895752909551957,0.00024007316972084812,-0.029177239279275,0.35414003108879727,3.199669981559299
1749296434979603712,0.0013356229629124037,-0.00028895752909551957,0.00024007316972084812,-0.029177239279275,0.35414003108879727,3.199669981559299
1749296434984598016,0.0013356229629124037,-0.00028895752909551957,0.00024007316972084812,-0.029177239279275,0.35414003108879727,3.199669981559299
1749296434989603584,0.0013356229629124037,-0.00028895752909551957,0.00024007316972084812,-0.029177239279275,0.35414003108879727,3.199669981559299
1749296434994598144,0.0013356229629124037,-0.00028895752909551957,0.00024007316972084812,-0.029177239279275,0.35414003108879727,3.199669981559299
1749296434999922688,0.0009563095481116114,-0.00029686886727021093,0.0003316996409941306,-0.029659326089755345,0.356944716203089,3.2032311248720076
1749296435004607488,0.0009563095481116114,-0.00029686886727021093,0.0003316996409941306,-0.029659326089755345,0.356944716203089,3.2032311248720076
1749296435009601024,0.0009563095481116114,-0.00029686886727021093,0.0003316996409941306,-0.029659326089755345,0.356944716203089,3.2032311248720076
1749296435014608128,0.0009563095481116114,-0.00029686886727021093,0.0003316996409941306,-0.029659326089755345,0.356944716203089,3.2032311248720076
1749296435019597824,0.0009563095481116114,-0.00029686886727021093,0.0003316996409941306,-0.029659326089755345,0.356944716203089,3.2032311248720076
1749296435024603136,0.0009563095481116114,-0.00029686886727021093,0.0003316996409941306,-0.029659326089755345,0.356944716203089,3.2032311248720076
1749296435029601024,0.0009563095481116114,-0.00029686886727021093,0.0003316996409941306,-0.029659326089755345,0.356944716203089,3.2032311248720076
1749296435034600704,0.0009563095481116114,-0.00029686886727021093,0.0003316996409941306,-0.029659326089755345,0.356944716203089,3.2032311248720076
1749296435039593984,0.0009563095481116114,-0.00029686886727021093,0.0003316996409941306,-0.029659326089755345,0.356944716203089,3.2032311248720076
1749296435044601088,0.0009563095481116114,-0.00029686886727021093,0.0003316996409941306,-0.029659326089755345,0.356944716203089,3.2032311248720076
1749296435049596160,0.0009563095481116114,-0.00029686886727021093,0.0003316996409941306,-0.029659326089755345,0.356944716203089,3.2032311248720076
1749296435054598144,0.0009563095481116114,-0.00029686886727021093,0.0003316996409941306,-0.029659326089755345,0.356944716203089,3.2032311248720076
1749296435059601408,0.0009563095481116114,-0.00029686886727021093,0.0003316996409941306,-0.029659326089755345,0.356944716203089,3.2032311248720076
1749296435064598272,0.0009563095481116114,-0.00029686886727021093,0.0003316996409941306,-0.029659326089755345,0.356944716203089,3.2032311248720076
1749296435069613056,0.0009563095481116114,-0.00029686886727021093,0.0003316996409941306,-0.029659326089755345,0.356944716203089,3.2032311248720076
1749296435074609152,0.0009563095481116114,-0.00029686886727021093,0.0003316996409941306,-0.029659326089755345,0.356944716203089,3.2032311248720076
1749296435079602432,0.0009563095481116114,-0.00029686886727021093,0.0003316996409941306,-0.029659326089755345,0.356944716203089,3.2032311248720076
1749296435084607488,0.0009563095481116114,-0.00029686886727021093,0.0003316996409941306,-0.029659326089755345,0.356944716203089,3.2032311248720076
1749296435089601280,0.0009563095481116114,-0.00029686886727021093,0.0003316996409941306,-0.029659326089755345,0.356944716203089,3.2032311248720076
1749296435094600960,0.0009563095481116114,-0.00029686886727021093,0.0003316996409941306,-0.029659326089755345,0.356944716203089,3.2032311248720076
1749296435099763968,0.0009563095481116114,-0.00029686886727021093,0.0003316996409941306,-0.029659326089755345,0.356944716203089,3.2032311248720076
1749296435104597504,0.0009563095481116114,-0.00029686886727021093,0.0003316996409941306,-0.029659326089755345,0.356944716203089,3.2032311248720076
1749296435109595136,0.0009563095481116114,-0.00029686886727021093,0.0003316996409941306,-0.029659326089755345,0.356944716203089,3.2032311248720076
1749296435114599936,0.0009563095481116114,-0.00029686886727021093,0.0003316996409941306,-0.029659326089755345,0.356944716203089,3.2032311248720076
1749296435119645184,0.0007957062363174206,-0.00014917516513483106,0.00031240480849823273,-0.028857145165734073,0.3619740601521245,3.2019114063027394
1749296435124600320,0.0007957062363174206,-0.00014917516513483106,0.00031240480849823273,-0.028857145165734073,0.3619740601521245,3.2019114063027394
1749296435129587456,0.0007957062363174206,-0.00014917516513483106,0.00031240480849823273,-0.028857145165734073,0.3619740601521245,3.2019114063027394
1749296435134614272,0.0007957062363174206,-0.00014917516513483106,0.00031240480849823273,-0.028857145165734073,0.3619740601521245,3.2019114063027394
1749296435139595264,0.0007957062363174206,-0.00014917516513483106,0.00031240480849823273,-0.028857145165734073,0.3619740601521245,3.2019114063027394
1749296435144641536,0.0007957062363174206,-0.00014917516513483106,0.00031240480849823273,-0.028857145165734073,0.3619740601521245,3.2019114063027394
1749296435149598464,0.0007957062363174206,-0.00014917516513483106,0.00031240480849823273,-0.028857145165734073,0.3619740601521245,3.2019114063027394
1749296435154593792,0.0007957062363174206,-0.00014917516513483106,0.00031240480849823273,-0.028857145165734073,0.3619740601521245,3.2019114063027394
1749296435159597312,0.0007957062363174206,-0.00014917516513483106,0.00031240480849823273,-0.028857145165734073,0.3619740601521245,3.2019114063027394
1749296435164620032,0.0007957062363174206,-0.00014917516513483106,0.00031240480849823273,-0.028857145165734073,0.3619740601521245,3.2019114063027394
1749296435169627392,0.0007957062363174206,-0.00014917516513483106,0.00031240480849823273,-0.028857145165734073,0.3619740601521245,3.2019114063027394
1749296435174612480,0.0007957062363174206,-0.00014917516513483106,0.00031240480849823273,-0.028857145165734073,0.3619740601521245,3.2019114063027394
1749296435179603456,0.0007957062363174206,-0.00014917516513483106,0.00031240480849823273,-0.028857145165734073,0.3619740601521245,3.2019114063027394
1749296435184605184,0.0007957062363174206,-0.00014917516513483106,0.00031240480849823273,-0.028857145165734073,0.3619740601521245,3.2019114063027394
1749296435189604608,0.0007957062363174206,-0.00014917516513483106,0.00031240480849823273,-0.028857145165734073,0.3619740601521245,3.2019114063027394
1749296435194606080,0.0007957062363174206,-0.00014917516513483106,0.00031240480849823273,-0.028857145165734073,0.3619740601521245,3.2019114063027394
1749296435199599360,0.0007957062363174206,-0.00014917516513483106,0.00031240480849823273,-0.028857145165734073,0.3619740601521245,3.2019114063027394
1749296435204601344,0.0007957062363174206,-0.00014917516513483106,0.00031240480849823273,-0.028857145165734073,0.3619740601521245,3.2019114063027394
1749296435209611520,0.0007957062363174206,-0.00014917516513483106,0.00031240480849823273,-0.028857145165734073,0.3619740601521245,3.2019114063027394
1749296435214609152,0.0007957062363174206,-0.00014917516513483106,0.00031240480849823273,-0.028857145165734073,0.3619740601521245,3.2019114063027394
1749296435219596800,0.0007957062363174206,-0.00014917516513483106,0.00031240480849823273,-0.028857145165734073,0.3619740601521245,3.2019114063027394
1749296435224616704,0.0007957062363174206,-0.00014917516513483106,0.00031240480849823273,-0.028857145165734073,0.3619740601521245,3.2019114063027394
1749296435229622528,0.0007957062363174206,-0.00014917516513483106,0.00031240480849823273,-0.028857145165734073,0.3619740601521245,3.2019114063027394
1749296435242017536,0.0007957062363174206,-0.00014917516513483106,0.00031240480849823273,-0.028857145165734073,0.3619740601521245,3.2019114063027394
1749296435242129408,0.0007957062363174206,-0.00014917516513483106,0.00031240480849823273,-0.028857145165734073,0.3619740601521245,3.2019114063027394
1749296435244616704,0.0007957062363174206,-0.00014917516513483106,0.00031240480849823273,-0.028857145165734073,0.3619740601521245,3.2019114063027394
1749296435249612544,0.0007957062363174206,-0.00014917516513483106,0.00031240480849823273,-0.028857145165734073,0.3619740601521245,3.2019114063027394
1749296435254605568,0.0007957062363174206,-0.00014917516513483106,0.00031240480849823273,-0.028857145165734073,0.3619740601521245,3.2019114063027394
1749296435259605248,0.0007957062363174206,-0.00014917516513483106,0.00031240480849823273,-0.028857145165734073,0.3619740601521245,3.2019114063027394
1749296435264602880,0.0007957062363174206,-0.00014917516513483106,0.00031240480849823273,-0.028857145165734073,0.3619740601521245,3.2019114063027394
1749296435269614848,0.0007957062363174206,-0.00014917516513483106,0.00031240480849823273,-0.028857145165734073,0.3619740601521245,3.2019114063027394
1749296435274604800,0.0007957062363174206,-0.00014917516513483106,0.00031240480849823273,-0.028857145165734073,0.3619740601521245,3.2019114063027394
1749296435279606016,0.0007957062363174206,-0.00014917516513483106,0.00031240480849823273,-0.028857145165734073,0.3619740601521245,3.2019114063027394
1749296435284599808,0.0007957062363174206,-0.00014917516513483106,0.00031240480849823273,-0.028857145165734073,0.3619740601521245,3.2019114063027394
1749296435289608704,0.0007957062363174206,-0.00014917516513483106,0.00031240480849823273,-0.028857145165734073,0.3619740601521245,3.2019114063027394
1749296435294604800,0.0007957062363174206,-0.00014917516513483106,0.00031240480849823273,-0.028857145165734073,0.3619740601521245,3.2019114063027394
1749296435299603200,0.0007957062363174206,-0.00014917516513483106,0.00031240480849823273,-0.028857145165734073,0.3619740601521245,3.2019114063027394
1749296435304598016,0.0007957062363174206,-0.00014917516513483106,0.00031240480849823273,-0.028857145165734073,0.3619740601521245,3.2019114063027394
1749296435309604864,0.0007957062363174206,-0.00014917516513483106,0.00031240480849823273,-0.028857145165734073,0.3619740601521245,3.2019114063027394
1749296435314599424,0.0007957062363174206,-0.00014917516513483106,0.00031240480849823273,-0.028857145165734073,0.3619740601521245,3.2019114063027394
1749296435319616256,0.0007957062363174206,-0.00014917516513483106,0.00031240480849823273,-0.028857145165734073,0.3619740601521245,3.2019114063027394
1749296435324617472,0.0007957062363174206,-0.00014917516513483106,0.00031240480849823273,-0.028857145165734073,0.3619740601521245,3.2019114063027394
1749296435331313920,0.0006298993482202478,-0.00027104802376825806,2.6162068439491224e-05,-0.029209310156344443,0.35874685314947813,3.202048944383166
1749296435334614528,0.0006298993482202478,-0.00027104802376825806,2.6162068439491224e-05,-0.029209310156344443,0.35874685314947813,3.202048944383166
1749296435339603456,0.0006298993482202478,-0.00027104802376825806,2.6162068439491224e-05,-0.029209310156344443,0.35874685314947813,3.202048944383166
1749296435344615168,0.0006298993482202478,-0.00027104802376825806,2.6162068439491224e-05,-0.029209310156344443,0.35874685314947813,3.202048944383166
1749296435349606656,0.0006298993482202478,-0.00027104802376825806,2.6162068439491224e-05,-0.029209310156344443,0.35874685314947813,3.202048944383166
1749296435354600960,0.0006298993482202478,-0.00027104802376825806,2.6162068439491224e-05,-0.029209310156344443,0.35874685314947813,3.202048944383166
1749296435359609088,0.0006298993482202478,-0.00027104802376825806,2.6162068439491224e-05,-0.029209310156344443,0.35874685314947813,3.202048944383166
1749296435364602112,0.0006298993482202478,-0.00027104802376825806,2.6162068439491224e-05,-0.029209310156344443,0.35874685314947813,3.202048944383166
1749296435369600000,0.0006298993482202478,-0.00027104802376825806,2.6162068439491224e-05,-0.029209310156344443,0.35874685314947813,3.202048944383166
1749296435374633984,0.0006298993482202478,-0.00027104802376825806,2.6162068439491224e-05,-0.029209310156344443,0.35874685314947813,3.202048944383166
1749296435379626752,0.0006298993482202478,-0.00027104802376825806,2.6162068439491224e-05,-0.029209310156344443,0.35874685314947813,3.202048944383166
1749296435384602624,0.0006298993482202478,-0.00027104802376825806,2.6162068439491224e-05,-0.029209310156344443,0.35874685314947813,3.202048944383166
1749296435389626112,0.0006298993482202478,-0.00027104802376825806,2.6162068439491224e-05,-0.029209310156344443,0.35874685314947813,3.202048944383166
1749296435394627072,0.0006298993482202478,-0.00027104802376825806,2.6162068439491224e-05,-0.029209310156344443,0.35874685314947813,3.202048944383166
1749296435399627264,0.0006298993482202478,-0.00027104802376825806,2.6162068439491224e-05,-0.029209310156344443,0.35874685314947813,3.202048944383166
1749296435404690688,0.0006298993482202478,-0.00027104802376825806,2.6162068439491224e-05,-0.029209310156344443,0.35874685314947813,3.202048944383166
1749296435409634048,0.0006298993482202478,-0.00027104802376825806,2.6162068439491224e-05,-0.029209310156344443,0.35874685314947813,3.202048944383166
1749296435414649600,0.0006298993482202478,-0.00027104802376825806,2.6162068439491224e-05,-0.029209310156344443,0.35874685314947813,3.202048944383166
1749296435419610880,0.0006298993482202478,-0.00027104802376825806,2.6162068439491224e-05,-0.029209310156344443,0.35874685314947813,3.202048944383166
1749296435424600064,0.0006298993482202478,-0.00027104802376825806,2.6162068439491224e-05,-0.029209310156344443,0.35874685314947813,3.202048944383166
1749296435429606144,0.0006298993482202478,-0.00027104802376825806,2.6162068439491224e-05,-0.029209310156344443,0.35874685314947813,3.202048944383166
1749296435434611456,0.0006298993482202478,-0.00027104802376825806,2.6162068439491224e-05,-0.029209310156344443,0.35874685314947813,3.202048944383166
1749296435439603200,0.0006298993482202478,-0.00027104802376825806,2.6162068439491224e-05,-0.029209310156344443,0.35874685314947813,3.202048944383166
1749296435444606976,0.0006298993482202478,-0.00027104802376825806,2.6162068439491224e-05,-0.029209310156344443,0.35874685314947813,3.202048944383166
1749296435449639680,0.0005689044659255816,-0.00020517399034067634,-8.445590542606366e-05,-0.028748832261824998,0.36119559908660154,3.2018941854094347
1749296435454620160,0.0005689044659255816,-0.00020517399034067634,-8.445590542606366e-05,-0.028748832261824998,0.36119559908660154,3.2018941854094347
1749296435459682304,0.0005689044659255816,-0.00020517399034067634,-8.445590542606366e-05,-0.028748832261824998,0.36119559908660154,3.2018941854094347
1749296435464650752,0.0005689044659255816,-0.00020517399034067634,-8.445590542606366e-05,-0.028748832261824998,0.36119559908660154,3.2018941854094347
1749296435469550592,0.0005689044659255816,-0.00020517399034067634,-8.445590542606366e-05,-0.028748832261824998,0.36119559908660154,3.2018941854094347
1749296435474599680,0.0005689044659255816,-0.00020517399034067634,-8.445590542606366e-05,-0.028748832261824998,0.36119559908660154,3.2018941854094347
1749296435479599360,0.0005689044659255816,-0.00020517399034067634,-8.445590542606366e-05,-0.028748832261824998,0.36119559908660154,3.2018941854094347
1749296435484591104,0.0005689044659255816,-0.00020517399034067634,-8.445590542606366e-05,-0.028748832261824998,0.36119559908660154,3.2018941854094347
1749296435489599488,0.0005689044659255816,-0.00020517399034067634,-8.445590542606366e-05,-0.028748832261824998,0.36119559908660154,3.2018941854094347
1749296435494600960,0.0005689044659255816,-0.00020517399034067634,-8.445590542606366e-05,-0.028748832261824998,0.36119559908660154,3.2018941854094347
1749296435499604736,0.0005689044659255816,-0.00020517399034067634,-8.445590542606366e-05,-0.028748832261824998,0.36119559908660154,3.2018941854094347
1749296435504596736,0.0005689044659255816,-0.00020517399034067634,-8.445590542606366e-05,-0.028748832261824998,0.36119559908660154,3.2018941854094347
1749296435509602048,0.0005689044659255816,-0.00020517399034067634,-8.445590542606366e-05,-0.028748832261824998,0.36119559908660154,3.2018941854094347
1749296435514596096,0.0005689044659255816,-0.00020517399034067634,-8.445590542606366e-05,-0.028748832261824998,0.36119559908660154,3.2018941854094347
1749296435519596288,0.0005689044659255816,-0.00020517399034067634,-8.445590542606366e-05,-0.028748832261824998,0.36119559908660154,3.2018941854094347
1749296435524594432,0.0005689044659255816,-0.00020517399034067634,-8.445590542606366e-05,-0.028748832261824998,0.36119559908660154,3.2018941854094347
1749296435529599488,0.0005689044659255816,-0.00020517399034067634,-8.445590542606366e-05,-0.028748832261824998,0.36119559908660154,3.2018941854094347
1749296435534594304,0.0005689044659255816,-0.00020517399034067634,-8.445590542606366e-05,-0.028748832261824998,0.36119559908660154,3.2018941854094347
1749296435539596544,0.0005689044659255816,-0.00020517399034067634,-8.445590542606366e-05,-0.028748832261824998,0.36119559908660154,3.2018941854094347
1749296435544596992,0.0005689044659255816,-0.00020517399034067634,-8.445590542606366e-05,-0.028748832261824998,0.36119559908660154,3.2018941854094347
1749296435549597184,0.0005689044659255816,-0.00020517399034067634,-8.445590542606366e-05,-0.028748832261824998,0.36119559908660154,3.2018941854094347
1749296435554595328,0.0005689044659255816,-0.00020517399034067634,-8.445590542606366e-05,-0.028748832261824998,0.36119559908660154,3.2018941854094347
1749296435559616256,0.0005689044659255816,-0.00020517399034067634,-8.445590542606366e-05,-0.028748832261824998,0.36119559908660154,3.2018941854094347
1749296435571382784,0.0005689044659255816,-0.00020517399034067634,-8.445590542606366e-05,-0.028748832261824998,0.36119559908660154,3.2018941854094347
1749296435571778560,0.0005689044659255816,-0.00020517399034067634,-8.445590542606366e-05,-0.028748832261824998,0.36119559908660154,3.2018941854094347
1749296435574614272,0.0005689044659255816,-0.00020517399034067634,-8.445590542606366e-05,-0.028748832261824998,0.36119559908660154,3.2018941854094347
1749296435579601664,0.0005689044659255816,-0.00020517399034067634,-8.445590542606366e-05,-0.028748832261824998,0.36119559908660154,3.2018941854094347
1749296435584601856,0.0005689044659255816,-0.00020517399034067634,-8.445590542606366e-05,-0.028748832261824998,0.36119559908660154,3.2018941854094347
1749296435589601536,0.0005689044659255816,-0.00020517399034067634,-8.445590542606366e-05,-0.028748832261824998,0.36119559908660154,3.2018941854094347
1749296435594597632,0.0005689044659255816,-0.00020517399034067634,-8.445590542606366e-05,-0.028748832261824998,0.36119559908660154,3.2018941854094347
1749296435599602688,0.0005689044659255816,-0.00020517399034067634,-8.445590542606366e-05,-0.028748832261824998,0.36119559908660154,3.2018941854094347
1749296435604596480,0.0005689044659255816,-0.00020517399034067634,-8.445590542606366e-05,-0.028748832261824998,0.36119559908660154,3.2018941854094347
1749296435609631744,0.0005689044659255816,-0.00020517399034067634,-8.445590542606366e-05,-0.028748832261824998,0.36119559908660154,3.2018941854094347
1749296435614627072,0.0005689044659255816,-0.00020517399034067634,-8.445590542606366e-05,-0.028748832261824998,0.36119559908660154,3.2018941854094347
1749296435619627264,0.0005689044659255816,-0.00020517399034067634,-8.445590542606366e-05,-0.028748832261824998,0.36119559908660154,3.2018941854094347
1749296435624626688,0.0005689044659255816,-0.00020517399034067634,-8.445590542606366e-05,-0.028748832261824998,0.36119559908660154,3.2018941854094347
1749296435629626624,0.0005689044659255816,-0.00020517399034067634,-8.445590542606366e-05,-0.028748832261824998,0.36119559908660154,3.2018941854094347
1749296435634631680,0.0005689044659255816,-0.00020517399034067634,-8.445590542606366e-05,-0.028748832261824998,0.36119559908660154,3.2018941854094347
1749296435639633920,0.0005689044659255816,-0.00020517399034067634,-8.445590542606366e-05,-0.028748832261824998,0.36119559908660154,3.2018941854094347
1749296435644629248,0.0005689044659255816,-0.00020517399034067634,-8.445590542606366e-05,-0.028748832261824998,0.36119559908660154,3.2018941854094347
1749296435649631488,0.0005689044659255816,-0.00020517399034067634,-8.445590542606366e-05,-0.028748832261824998,0.36119559908660154,3.2018941854094347
1749296435654627328,0.0005689044659255816,-0.00020517399034067634,-8.445590542606366e-05,-0.028748832261824998,0.36119559908660154,3.2018941854094347
1749296435659897344,0.0007856563332953265,-0.00019671769125723863,0.00037440970117799037,-0.02982271553429354,0.35163663835195275,3.2016914828789984
1749296435664609280,0.0007856563332953265,-0.00019671769125723863,0.00037440970117799037,-0.02982271553429354,0.35163663835195275,3.2016914828789984
1749296435669615360,0.0007856563332953265,-0.00019671769125723863,0.00037440970117799037,-0.02982271553429354,0.35163663835195275,3.2016914828789984
1749296435674609664,0.0007856563332953265,-0.00019671769125723863,0.00037440970117799037,-0.02982271553429354,0.35163663835195275,3.2016914828789984
1749296435679610880,0.0007856563332953265,-0.00019671769125723863,0.00037440970117799037,-0.02982271553429354,0.35163663835195275,3.2016914828789984
1749296435684598528,0.0007856563332953265,-0.00019671769125723863,0.00037440970117799037,-0.02982271553429354,0.35163663835195275,3.2016914828789984
1749296435689607168,0.0007856563332953265,-0.00019671769125723863,0.00037440970117799037,-0.02982271553429354,0.35163663835195275,3.2016914828789984
1749296435694618624,0.0007856563332953265,-0.00019671769125723863,0.00037440970117799037,-0.02982271553429354,0.35163663835195275,3.2016914828789984
1749296435699613696,0.0007856563332953265,-0.00019671769125723863,0.00037440970117799037,-0.02982271553429354,0.35163663835195275,3.2016914828789984
1749296435704602368,0.0007856563332953265,-0.00019671769125723863,0.00037440970117799037,-0.02982271553429354,0.35163663835195275,3.2016914828789984
1749296435709596672,0.0007856563332953265,-0.00019671769125723863,0.00037440970117799037,-0.02982271553429354,0.35163663835195275,3.2016914828789984
1749296435714598912,0.0007856563332953265,-0.00019671769125723863,0.00037440970117799037,-0.02982271553429354,0.35163663835195275,3.2016914828789984
1749296435719610880,0.0007856563332953265,-0.00019671769125723863,0.00037440970117799037,-0.02982271553429354,0.35163663835195275,3.2016914828789984
1749296435724598784,0.0007856563332953265,-0.00019671769125723863,0.00037440970117799037,-0.02982271553429354,0.35163663835195275,3.2016914828789984
1749296435729600768,0.0007856563332953265,-0.00019671769125723863,0.00037440970117799037,-0.02982271553429354,0.35163663835195275,3.2016914828789984
1749296435734598912,0.0007856563332953265,-0.00019671769125723863,0.00037440970117799037,-0.02982271553429354,0.35163663835195275,3.2016914828789984
1749296435739656704,0.0007856563332953265,-0.00019671769125723863,0.00037440970117799037,-0.02982271553429354,0.35163663835195275,3.2016914828789984
1749296435744615424,0.0007856563332953265,-0.00019671769125723863,0.00037440970117799037,-0.02982271553429354,0.35163663835195275,3.2016914828789984
1749296435749600768,0.0007856563332953265,-0.00019671769125723863,0.00037440970117799037,-0.02982271553429354,0.35163663835195275,3.2016914828789984
1749296435754601728,0.0007856563332953265,-0.00019671769125723863,0.00037440970117799037,-0.02982271553429354,0.35163663835195275,3.2016914828789984
1749296435759609344,0.0007856563332953265,-0.00019671769125723863,0.00037440970117799037,-0.02982271553429354,0.35163663835195275,3.2016914828789984
1749296435764609024,0.0007856563332953265,-0.00019671769125723863,0.00037440970117799037,-0.02982271553429354,0.35163663835195275,3.2016914828789984
1749296435769612544,0.0007856563332953265,-0.00019671769125723863,0.00037440970117799037,-0.02982271553429354,0.35163663835195275,3.2016914828789984
1749296435776064256,0.0008513661857073486,-0.00018409896081907117,0.00015875079487382202,-0.028959701056027815,0.3583347225614116,3.1997997533273157
1749296435779628544,0.0008513661857073486,-0.00018409896081907117,0.00015875079487382202,-0.028959701056027815,0.3583347225614116,3.1997997533273157
1749296435784605184,0.0008513661857073486,-0.00018409896081907117,0.00015875079487382202,-0.028959701056027815,0.3583347225614116,3.1997997533273157
1749296435789556992,0.0008513661857073486,-0.00018409896081907117,0.00015875079487382202,-0.028959701056027815,0.3583347225614116,3.1997997533273157
1749296435794592256,0.0008513661857073486,-0.00018409896081907117,0.00015875079487382202,-0.028959701056027815,0.3583347225614116,3.1997997533273157
1749296435799612416,0.0008513661857073486,-0.00018409896081907117,0.00015875079487382202,-0.028959701056027815,0.3583347225614116,3.1997997533273157
1749296435804602624,0.0008513661857073486,-0.00018409896081907117,0.00015875079487382202,-0.028959701056027815,0.3583347225614116,3.1997997533273157
1749296435809596928,0.0008513661857073486,-0.00018409896081907117,0.00015875079487382202,-0.028959701056027815,0.3583347225614116,3.1997997533273157
1749296435814588672,0.0008513661857073486,-0.00018409896081907117,0.00015875079487382202,-0.028959701056027815,0.3583347225614116,3.1997997533273157
1749296435819583232,0.0008513661857073486,-0.00018409896081907117,0.00015875079487382202,-0.028959701056027815,0.3583347225614116,3.1997997533273157
1749296435824590848,0.0008513661857073486,-0.00018409896081907117,0.00015875079487382202,-0.028959701056027815,0.3583347225614116,3.1997997533273157
1749296435829595904,0.0008513661857073486,-0.00018409896081907117,0.00015875079487382202,-0.028959701056027815,0.3583347225614116,3.1997997533273157
1749296435834591488,0.0008513661857073486,-0.00018409896081907117,0.00015875079487382202,-0.028959701056027815,0.3583347225614116,3.1997997533273157
1749296435839602176,0.0008513661857073486,-0.00018409896081907117,0.00015875079487382202,-0.028959701056027815,0.3583347225614116,3.1997997533273157
1749296435844604672,0.0008513661857073486,-0.00018409896081907117,0.00015875079487382202,-0.028959701056027815,0.3583347225614116,3.1997997533273157
1749296435849601792,0.0008513661857073486,-0.00018409896081907117,0.00015875079487382202,-0.028959701056027815,0.3583347225614116,3.1997997533273157
1749296435854603776,0.0008513661857073486,-0.00018409896081907117,0.00015875079487382202,-0.028959701056027815,0.3583347225614116,3.1997997533273157
1749296435859602688,0.0008513661857073486,-0.00018409896081907117,0.00015875079487382202,-0.028959701056027815,0.3583347225614116,3.1997997533273157
1749296435864600576,0.0008513661857073486,-0.00018409896081907117,0.00015875079487382202,-0.028959701056027815,0.3583347225614116,3.1997997533273157
1749296435869611776,0.0008513661857073486,-0.00018409896081907117,0.00015875079487382202,-0.028959701056027815,0.3583347225614116,3.1997997533273157
1749296435874619136,0.0008513661857073486,-0.00018409896081907117,0.00015875079487382202,-0.028959701056027815,0.3583347225614116,3.1997997533273157
1749296435879605760,0.0008513661857073486,-0.00018409896081907117,0.00015875079487382202,-0.028959701056027815,0.3583347225614116,3.1997997533273157
1749296435884608000,0.0008513661857073486,-0.00018409896081907117,0.00015875079487382202,-0.028959701056027815,0.3583347225614116,3.1997997533273157
1749296435889619456,0.0008513661857073486,-0.00018409896081907117,0.00015875079487382202,-0.028959701056027815,0.3583347225614116,3.1997997533273157
1749296435901827840,0.0008513661857073486,-0.00018409896081907117,0.00015875079487382202,-0.028959701056027815,0.3583347225614116,3.1997997533273157
1749296435902270208,0.0008513661857073486,-0.00018409896081907117,0.00015875079487382202,-0.028959701056027815,0.3583347225614116,3.1997997533273157
1749296435904606464,0.0008513661857073486,-0.00018409896081907117,0.00015875079487382202,-0.028959701056027815,0.3583347225614116,3.1997997533273157
1749296435909568256,0.0008513661857073486,-0.00018409896081907117,0.00015875079487382202,-0.028959701056027815,0.3583347225614116,3.1997997533273157
1749296435914595072,0.0008513661857073486,-0.00018409896081907117,0.00015875079487382202,-0.028959701056027815,0.3583347225614116,3.1997997533273157
1749296435919601664,0.0008513661857073486,-0.00018409896081907117,0.00015875079487382202,-0.028959701056027815,0.3583347225614116,3.1997997533273157
1749296435924595200,0.0008513661857073486,-0.00018409896081907117,0.00015875079487382202,-0.028959701056027815,0.3583347225614116,3.1997997533273157
1749296435929596416,0.0008513661857073486,-0.00018409896081907117,0.00015875079487382202,-0.028959701056027815,0.3583347225614116,3.1997997533273157
1749296435934593024,0.0008513661857073486,-0.00018409896081907117,0.00015875079487382202,-0.028959701056027815,0.3583347225614116,3.1997997533273157
1749296435939593216,0.0008513661857073486,-0.00018409896081907117,0.00015875079487382202,-0.028959701056027815,0.3583347225614116,3.1997997533273157
1749296435944601600,0.0008513661857073486,-0.00018409896081907117,0.00015875079487382202,-0.028959701056027815,0.3583347225614116,3.1997997533273157
1749296435949597440,0.0008513661857073486,-0.00018409896081907117,0.00015875079487382202,-0.028959701056027815,0.3583347225614116,3.1997997533273157
1749296435954597376,0.0008513661857073486,-0.00018409896081907117,0.00015875079487382202,-0.028959701056027815,0.3583347225614116,3.1997997533273157
1749296435959580160,0.0008513661857073486,-0.00018409896081907117,0.00015875079487382202,-0.028959701056027815,0.3583347225614116,3.1997997533273157
1749296435964600576,0.0008513661857073486,-0.00018409896081907117,0.00015875079487382202,-0.028959701056027815,0.3583347225614116,3.1997997533273157
1749296435969609728,0.0008513661857073486,-0.00018409896081907117,0.00015875079487382202,-0.028959701056027815,0.3583347225614116,3.1997997533273157
1749296435974607104,0.0008513661857073486,-0.00018409896081907117,0.00015875079487382202,-0.028959701056027815,0.3583347225614116,3.1997997533273157
1749296435979597568,0.0008513661857073486,-0.00018409896081907117,0.00015875079487382202,-0.028959701056027815,0.3583347225614116,3.1997997533273157
1749296435984595712,0.0008513661857073486,-0.00018409896081907117,0.00015875079487382202,-0.028959701056027815,0.3583347225614116,3.1997997533273157
1749296435989614080,0.0013297403576932887,-0.0003044590011856161,0.000642291534163203,-0.028382864731722347,0.35509125729691227,3.2014245925373577
1749296435994594560,0.0013297403576932887,-0.0003044590011856161,0.000642291534163203,-0.028382864731722347,0.35509125729691227,3.2014245925373577
1749296435999593472,0.0013297403576932887,-0.0003044590011856161,0.000642291534163203,-0.028382864731722347,0.35509125729691227,3.2014245925373577
1749296436004594432,0.0013297403576932887,-0.0003044590011856161,0.000642291534163203,-0.028382864731722347,0.35509125729691227,3.2014245925373577
1749296436009595392,0.0013297403576932887,-0.0003044590011856161,0.000642291534163203,-0.028382864731722347,0.35509125729691227,3.2014245925373577
1749296436014595328,0.0013297403576932887,-0.0003044590011856161,0.000642291534163203,-0.028382864731722347,0.35509125729691227,3.2014245925373577
1749296436019591168,0.0013297403576932887,-0.0003044590011856161,0.000642291534163203,-0.028382864731722347,0.35509125729691227,3.2014245925373577
1749296436024592384,0.0013297403576932887,-0.0003044590011856161,0.000642291534163203,-0.028382864731722347,0.35509125729691227,3.2014245925373577
1749296436029609472,0.0013297403576932887,-0.0003044590011856161,0.000642291534163203,-0.028382864731722347,0.35509125729691227,3.2014245925373577
1749296436034610688,0.0013297403576932887,-0.0003044590011856161,0.000642291534163203,-0.028382864731722347,0.35509125729691227,3.2014245925373577
1749296436039599872,0.0013297403576932887,-0.0003044590011856161,0.000642291534163203,-0.028382864731722347,0.35509125729691227,3.2014245925373577
1749296436044593664,0.0013297403576932887,-0.0003044590011856161,0.000642291534163203,-0.028382864731722347,0.35509125729691227,3.2014245925373577
1749296436049594880,0.0013297403576932887,-0.0003044590011856161,0.000642291534163203,-0.028382864731722347,0.35509125729691227,3.2014245925373577
1749296436054591744,0.0013297403576932887,-0.0003044590011856161,0.000642291534163203,-0.028382864731722347,0.35509125729691227,3.2014245925373577
1749296436059591680,0.0013297403576932887,-0.0003044590011856161,0.000642291534163203,-0.028382864731722347,0.35509125729691227,3.2014245925373577
1749296436064591616,0.0013297403576932887,-0.0003044590011856161,0.000642291534163203,-0.028382864731722347,0.35509125729691227,3.2014245925373577
1749296436069614592,0.0013297403576932887,-0.0003044590011856161,0.000642291534163203,-0.028382864731722347,0.35509125729691227,3.2014245925373577
1749296436074603008,0.0013297403576932887,-0.0003044590011856161,0.000642291534163203,-0.028382864731722347,0.35509125729691227,3.2014245925373577
1749296436079598592,0.0013297403576932887,-0.0003044590011856161,0.000642291534163203,-0.028382864731722347,0.35509125729691227,3.2014245925373577
1749296436084617984,0.0013297403576932887,-0.0003044590011856161,0.000642291534163203,-0.028382864731722347,0.35509125729691227,3.2014245925373577
1749296436089607168,0.0013297403576932887,-0.0003044590011856161,0.000642291534163203,-0.028382864731722347,0.35509125729691227,3.2014245925373577
1749296436094598144,0.0013297403576932887,-0.0003044590011856161,0.000642291534163203,-0.028382864731722347,0.35509125729691227,3.2014245925373577
1749296436099597056,0.0013297403576932887,-0.0003044590011856161,0.000642291534163203,-0.028382864731722347,0.35509125729691227,3.2014245925373577
1749296436104610304,0.001076053511218038,-0.0002934430592629123,9.766849980173528e-05,-0.029253445626245954,0.3592503759852068,3.2015431312694735
1749296436109607424,0.001076053511218038,-0.0002934430592629123,9.766849980173528e-05,-0.029253445626245954,0.3592503759852068,3.2015431312694735
1749296436114586368,0.001076053511218038,-0.0002934430592629123,9.766849980173528e-05,-0.029253445626245954,0.3592503759852068,3.2015431312694735
1749296436119614720,0.001076053511218038,-0.0002934430592629123,9.766849980173528e-05,-0.029253445626245954,0.3592503759852068,3.2015431312694735
1749296436124610304,0.001076053511218038,-0.0002934430592629123,9.766849980173528e-05,-0.029253445626245954,0.3592503759852068,3.2015431312694735
1749296436129595136,0.001076053511218038,-0.0002934430592629123,9.766849980173528e-05,-0.029253445626245954,0.3592503759852068,3.2015431312694735
1749296436134608896,0.001076053511218038,-0.0002934430592629123,9.766849980173528e-05,-0.029253445626245954,0.3592503759852068,3.2015431312694735
1749296436139594752,0.001076053511218038,-0.0002934430592629123,9.766849980173528e-05,-0.029253445626245954,0.3592503759852068,3.2015431312694735
1749296436144580608,0.001076053511218038,-0.0002934430592629123,9.766849980173528e-05,-0.029253445626245954,0.3592503759852068,3.2015431312694735
1749296436149583616,0.001076053511218038,-0.0002934430592629123,9.766849980173528e-05,-0.029253445626245954,0.3592503759852068,3.2015431312694735
1749296436154620416,0.001076053511218038,-0.0002934430592629123,9.766849980173528e-05,-0.029253445626245954,0.3592503759852068,3.2015431312694735
1749296436159616768,0.001076053511218038,-0.0002934430592629123,9.766849980173528e-05,-0.029253445626245954,0.3592503759852068,3.2015431312694735
1749296436164628480,0.001076053511218038,-0.0002934430592629123,9.766849980173528e-05,-0.029253445626245954,0.3592503759852068,3.2015431312694735
1749296436169630208,0.001076053511218038,-0.0002934430592629123,9.766849980173528e-05,-0.029253445626245954,0.3592503759852068,3.2015431312694735
1749296436174629632,0.001076053511218038,-0.0002934430592629123,9.766849980173528e-05,-0.029253445626245954,0.3592503759852068,3.2015431312694735
1749296436179630592,0.001076053511218038,-0.0002934430592629123,9.766849980173528e-05,-0.029253445626245954,0.3592503759852068,3.2015431312694735
1749296436184631040,0.001076053511218038,-0.0002934430592629123,9.766849980173528e-05,-0.029253445626245954,0.3592503759852068,3.2015431312694735
1749296436189637888,0.001076053511218038,-0.0002934430592629123,9.766849980173528e-05,-0.029253445626245954,0.3592503759852068,3.2015431312694735
1749296436194630912,0.001076053511218038,-0.0002934430592629123,9.766849980173528e-05,-0.029253445626245954,0.3592503759852068,3.2015431312694735
1749296436199637504,0.001076053511218038,-0.0002934430592629123,9.766849980173528e-05,-0.029253445626245954,0.3592503759852068,3.2015431312694735
1749296436204632320,0.001076053511218038,-0.0002934430592629123,9.766849980173528e-05,-0.029253445626245954,0.3592503759852068,3.2015431312694735
1749296436209635584,0.001076053511218038,-0.0002934430592629123,9.766849980173528e-05,-0.029253445626245954,0.3592503759852068,3.2015431312694735
1749296436214628096,0.001076053511218038,-0.0002934430592629123,9.766849980173528e-05,-0.029253445626245954,0.3592503759852068,3.2015431312694735
1749296436219635968,0.001076053511218038,-0.0002934430592629123,9.766849980173528e-05,-0.029253445626245954,0.3592503759852068,3.2015431312694735
1749296436229997824,0.001076053511218038,-0.0002934430592629123,9.766849980173528e-05,-0.029253445626245954,0.3592503759852068,3.2015431312694735
1749296436230468096,0.001076053511218038,-0.0002934430592629123,9.766849980173528e-05,-0.029253445626245954,0.3592503759852068,3.2015431312694735
1749296436235278336,0.001076053511218038,-0.0002934430592629123,9.766849980173528e-05,-0.029253445626245954,0.3592503759852068,3.2015431312694735
1749296436239615488,0.001076053511218038,-0.0002934430592629123,9.766849980173528e-05,-0.029253445626245954,0.3592503759852068,3.2015431312694735
1749296436244627712,0.001076053511218038,-0.0002934430592629123,9.766849980173528e-05,-0.029253445626245954,0.3592503759852068,3.2015431312694735
1749296436249632512,0.001076053511218038,-0.0002934430592629123,9.766849980173528e-05,-0.029253445626245954,0.3592503759852068,3.2015431312694735
1749296436254626816,0.001076053511218038,-0.0002934430592629123,9.766849980173528e-05,-0.029253445626245954,0.3592503759852068,3.2015431312694735
1749296436259627008,0.001076053511218038,-0.0002934430592629123,9.766849980173528e-05,-0.029253445626245954,0.3592503759852068,3.2015431312694735
1749296436264627456,0.001076053511218038,-0.0002934430592629123,9.766849980173528e-05,-0.029253445626245954,0.3592503759852068,3.2015431312694735
1749296436269627392,0.001076053511218038,-0.0002934430592629123,9.766849980173528e-05,-0.029253445626245954,0.3592503759852068,3.2015431312694735
1749296436274627072,0.001076053511218038,-0.0002934430592629123,9.766849980173528e-05,-0.029253445626245954,0.3592503759852068,3.2015431312694735
1749296436279627520,0.001076053511218038,-0.0002934430592629123,9.766849980173528e-05,-0.029253445626245954,0.3592503759852068,3.2015431312694735
1749296436284627456,0.001076053511218038,-0.0002934430592629123,9.766849980173528e-05,-0.029253445626245954,0.3592503759852068,3.2015431312694735
1749296436289627648,0.001076053511218038,-0.0002934430592629123,9.766849980173528e-05,-0.029253445626245954,0.3592503759852068,3.2015431312694735
1749296436294626816,0.001076053511218038,-0.0002934430592629123,9.766849980173528e-05,-0.029253445626245954,0.3592503759852068,3.2015431312694735
1749296436299626496,0.001076053511218038,-0.0002934430592629123,9.766849980173528e-05,-0.029253445626245954,0.3592503759852068,3.2015431312694735
1749296436304616448,0.001076053511218038,-0.0002934430592629123,9.766849980173528e-05,-0.029253445626245954,0.3592503759852068,3.2015431312694735
1749296436309626624,0.001076053511218038,-0.0002934430592629123,9.766849980173528e-05,-0.029253445626245954,0.3592503759852068,3.2015431312694735
1749296436314628096,0.001076053511218038,-0.0002934430592629123,9.766849980173528e-05,-0.029253445626245954,0.3592503759852068,3.2015431312694735
1749296436319638272,0.000978468379348912,-4.557559155358791e-05,-8.250791944237047e-06,-0.02779806055367508,0.362614508050832,3.202079633711032
1749296436324617216,0.000978468379348912,-4.557559155358791e-05,-8.250791944237047e-06,-0.02779806055367508,0.362614508050832,3.202079633711032
1749296436329603072,0.000978468379348912,-4.557559155358791e-05,-8.250791944237047e-06,-0.02779806055367508,0.362614508050832,3.202079633711032
1749296436334603264,0.000978468379348912,-4.557559155358791e-05,-8.250791944237047e-06,-0.02779806055367508,0.362614508050832,3.202079633711032
1749296436339599872,0.000978468379348912,-4.557559155358791e-05,-8.250791944237047e-06,-0.02779806055367508,0.362614508050832,3.202079633711032
1749296436344600064,0.000978468379348912,-4.557559155358791e-05,-8.250791944237047e-06,-0.02779806055367508,0.362614508050832,3.202079633711032
1749296436349600256,0.000978468379348912,-4.557559155358791e-05,-8.250791944237047e-06,-0.02779806055367508,0.362614508050832,3.202079633711032
1749296436354598912,0.000978468379348912,-4.557559155358791e-05,-8.250791944237047e-06,-0.02779806055367508,0.362614508050832,3.202079633711032
1749296436359624448,0.000978468379348912,-4.557559155358791e-05,-8.250791944237047e-06,-0.02779806055367508,0.362614508050832,3.202079633711032
1749296436364628224,0.000978468379348912,-4.557559155358791e-05,-8.250791944237047e-06,-0.02779806055367508,0.362614508050832,3.202079633711032
1749296436369619456,0.000978468379348912,-4.557559155358791e-05,-8.250791944237047e-06,-0.02779806055367508,0.362614508050832,3.202079633711032
1749296436374608896,0.000978468379348912,-4.557559155358791e-05,-8.250791944237047e-06,-0.02779806055367508,0.362614508050832,3.202079633711032
1749296436379608576,0.000978468379348912,-4.557559155358791e-05,-8.250791944237047e-06,-0.02779806055367508,0.362614508050832,3.202079633711032
1749296436384600832,0.000978468379348912,-4.557559155358791e-05,-8.250791944237047e-06,-0.02779806055367508,0.362614508050832,3.202079633711032
1749296436389630976,0.000978468379348912,-4.557559155358791e-05,-8.250791944237047e-06,-0.02779806055367508,0.362614508050832,3.202079633711032
1749296436394626304,0.000978468379348912,-4.557559155358791e-05,-8.250791944237047e-06,-0.02779806055367508,0.362614508050832,3.202079633711032
1749296436399614976,0.000978468379348912,-4.557559155358791e-05,-8.250791944237047e-06,-0.02779806055367508,0.362614508050832,3.202079633711032
1749296436404608512,0.000978468379348912,-4.557559155358791e-05,-8.250791944237047e-06,-0.02779806055367508,0.362614508050832,3.202079633711032
1749296436409604096,0.000978468379348912,-4.557559155358791e-05,-8.250791944237047e-06,-0.02779806055367508,0.362614508050832,3.202079633711032
1749296436414601472,0.000978468379348912,-4.557559155358791e-05,-8.250791944237047e-06,-0.02779806055367508,0.362614508050832,3.202079633711032
1749296436419599872,0.000978468379348912,-4.557559155358791e-05,-8.250791944237047e-06,-0.02779806055367508,0.362614508050832,3.202079633711032
1749296436424595968,0.000978468379348912,-4.557559155358791e-05,-8.250791944237047e-06,-0.02779806055367508,0.362614508050832,3.202079633711032
1749296436431814144,0.0005492869101922421,-8.958613573178161e-05,-8.66117684425191e-05,-0.026841245903878434,0.3551943122504716,3.2025047601761267
1749296436434608640,0.0005492869101922421,-8.958613573178161e-05,-8.66117684425191e-05,-0.026841245903878434,0.3551943122504716,3.2025047601761267
1749296436439597568,0.0005492869101922421,-8.958613573178161e-05,-8.66117684425191e-05,-0.026841245903878434,0.3551943122504716,3.2025047601761267
1749296436444593408,0.0005492869101922421,-8.958613573178161e-05,-8.66117684425191e-05,-0.026841245903878434,0.3551943122504716,3.2025047601761267
1749296436449596672,0.0005492869101922421,-8.958613573178161e-05,-8.66117684425191e-05,-0.026841245903878434,0.3551943122504716,3.2025047601761267
1749296436454606080,0.0005492869101922421,-8.958613573178161e-05,-8.66117684425191e-05,-0.026841245903878434,0.3551943122504716,3.2025047601761267
1749296436459601664,0.0005492869101922421,-8.958613573178161e-05,-8.66117684425191e-05,-0.026841245903878434,0.3551943122504716,3.2025047601761267
1749296436464597504,0.0005492869101922421,-8.958613573178161e-05,-8.66117684425191e-05,-0.026841245903878434,0.3551943122504716,3.2025047601761267
1749296436469593600,0.0005492869101922421,-8.958613573178161e-05,-8.66117684425191e-05,-0.026841245903878434,0.3551943122504716,3.2025047601761267
1749296436474610688,0.0005492869101922421,-8.958613573178161e-05,-8.66117684425191e-05,-0.026841245903878434,0.3551943122504716,3.2025047601761267
1749296436479608832,0.0005492869101922421,-8.958613573178161e-05,-8.66117684425191e-05,-0.026841245903878434,0.3551943122504716,3.2025047601761267
1749296436484610048,0.0005492869101922421,-8.958613573178161e-05,-8.66117684425191e-05,-0.026841245903878434,0.3551943122504716,3.2025047601761267
1749296436489625088,0.0005492869101922421,-8.958613573178161e-05,-8.66117684425191e-05,-0.026841245903878434,0.3551943122504716,3.2025047601761267
1749296436494612992,0.0005492869101922421,-8.958613573178161e-05,-8.66117684425191e-05,-0.026841245903878434,0.3551943122504716,3.2025047601761267
1749296436499624448,0.0005492869101922421,-8.958613573178161e-05,-8.66117684425191e-05,-0.026841245903878434,0.3551943122504716,3.2025047601761267
1749296436504629760,0.0005492869101922421,-8.958613573178161e-05,-8.66117684425191e-05,-0.026841245903878434,0.3551943122504716,3.2025047601761267
1749296436509630976,0.0005492869101922421,-8.958613573178161e-05,-8.66117684425191e-05,-0.026841245903878434,0.3551943122504716,3.2025047601761267
1749296436514630400,0.0005492869101922421,-8.958613573178161e-05,-8.66117684425191e-05,-0.026841245903878434,0.3551943122504716,3.2025047601761267
1749296436519631360,0.0005492869101922421,-8.958613573178161e-05,-8.66117684425191e-05,-0.026841245903878434,0.3551943122504716,3.2025047601761267
1749296436524631040,0.0005492869101922421,-8.958613573178161e-05,-8.66117684425191e-05,-0.026841245903878434,0.3551943122504716,3.2025047601761267
1749296436529631488,0.0005492869101922421,-8.958613573178161e-05,-8.66117684425191e-05,-0.026841245903878434,0.3551943122504716,3.2025047601761267
1749296436534640640,0.0005492869101922421,-8.958613573178161e-05,-8.66117684425191e-05,-0.026841245903878434,0.3551943122504716,3.2025047601761267
1749296436539628800,0.0005492869101922421,-8.958613573178161e-05,-8.66117684425191e-05,-0.026841245903878434,0.3551943122504716,3.2025047601761267
1749296436544636928,0.0005492869101922421,-8.958613573178161e-05,-8.66117684425191e-05,-0.026841245903878434,0.3551943122504716,3.2025047601761267
1749296436555275008,0.0005492869101922421,-8.958613573178161e-05,-8.66117684425191e-05,-0.026841245903878434,0.3551943122504716,3.2025047601761267
1749296436555389440,0.0005492869101922421,-8.958613573178161e-05,-8.66117684425191e-05,-0.026841245903878434,0.3551943122504716,3.2025047601761267
1749296436560068096,0.0005492869101922421,-8.958613573178161e-05,-8.66117684425191e-05,-0.026841245903878434,0.3551943122504716,3.2025047601761267
1749296436564604416,0.0005492869101922421,-8.958613573178161e-05,-8.66117684425191e-05,-0.026841245903878434,0.3551943122504716,3.2025047601761267
1749296436569610752,0.0005492869101922421,-8.958613573178161e-05,-8.66117684425191e-05,-0.026841245903878434,0.3551943122504716,3.2025047601761267
1749296436574600192,0.0005492869101922421,-8.958613573178161e-05,-8.66117684425191e-05,-0.026841245903878434,0.3551943122504716,3.2025047601761267
1749296436579597568,0.0005492869101922421,-8.958613573178161e-05,-8.66117684425191e-05,-0.026841245903878434,0.3551943122504716,3.2025047601761267
1749296436584596480,0.0005492869101922421,-8.958613573178161e-05,-8.66117684425191e-05,-0.026841245903878434,0.3551943122504716,3.2025047601761267
1749296436589619968,0.0005492869101922421,-8.958613573178161e-05,-8.66117684425191e-05,-0.026841245903878434,0.3551943122504716,3.2025047601761267
1749296436594611200,0.0005492869101922421,-8.958613573178161e-05,-8.66117684425191e-05,-0.026841245903878434,0.3551943122504716,3.2025047601761267
1749296436599609088,0.0005492869101922421,-8.958613573178161e-05,-8.66117684425191e-05,-0.026841245903878434,0.3551943122504716,3.2025047601761267
1749296436604627200,0.0005492869101922421,-8.958613573178161e-05,-8.66117684425191e-05,-0.026841245903878434,0.3551943122504716,3.2025047601761267
1749296436609627904,0.0005492869101922421,-8.958613573178161e-05,-8.66117684425191e-05,-0.026841245903878434,0.3551943122504716,3.2025047601761267
1749296436614626560,0.0005492869101922421,-8.958613573178161e-05,-8.66117684425191e-05,-0.026841245903878434,0.3551943122504716,3.2025047601761267
1749296436619627776,0.0005492869101922421,-8.958613573178161e-05,-8.66117684425191e-05,-0.026841245903878434,0.3551943122504716,3.2025047601761267
1749296436624615424,0.0005492869101922421,-8.958613573178161e-05,-8.66117684425191e-05,-0.026841245903878434,0.3551943122504716,3.2025047601761267
1749296436629611264,0.0005492869101922421,-8.958613573178161e-05,-8.66117684425191e-05,-0.026841245903878434,0.3551943122504716,3.2025047601761267
1749296436634613248,0.0005492869101922421,-8.958613573178161e-05,-8.66117684425191e-05,-0.026841245903878434,0.3551943122504716,3.2025047601761267
1749296436639602432,0.0005492869101922421,-8.958613573178161e-05,-8.66117684425191e-05,-0.026841245903878434,0.3551943122504716,3.2025047601761267
1749296436644614144,0.0012534734601606975,-0.00016893734759556344,0.0006421873303796508,-0.030710989521196146,0.35847053638515536,3.2005198636107997
1749296436649597696,0.0012534734601606975,-0.00016893734759556344,0.0006421873303796508,-0.030710989521196146,0.35847053638515536,3.2005198636107997
1749296436654594048,0.0012534734601606975,-0.00016893734759556344,0.0006421873303796508,-0.030710989521196146,0.35847053638515536,3.2005198636107997
1749296436659592448,0.0012534734601606975,-0.00016893734759556344,0.0006421873303796508,-0.030710989521196146,0.35847053638515536,3.2005198636107997
1749296436664597760,0.0012534734601606975,-0.00016893734759556344,0.0006421873303796508,-0.030710989521196146,0.35847053638515536,3.2005198636107997
1749296436669607424,0.0012534734601606975,-0.00016893734759556344,0.0006421873303796508,-0.030710989521196146,0.35847053638515536,3.2005198636107997
1749296436674602752,0.0012534734601606975,-0.00016893734759556344,0.0006421873303796508,-0.030710989521196146,0.35847053638515536,3.2005198636107997
1749296436679594496,0.0012534734601606975,-0.00016893734759556344,0.0006421873303796508,-0.030710989521196146,0.35847053638515536,3.2005198636107997
1749296436684606976,0.0012534734601606975,-0.00016893734759556344,0.0006421873303796508,-0.030710989521196146,0.35847053638515536,3.2005198636107997
1749296436689595136,0.0012534734601606975,-0.00016893734759556344,0.0006421873303796508,-0.030710989521196146,0.35847053638515536,3.2005198636107997
1749296436694597888,0.0012534734601606975,-0.00016893734759556344,0.0006421873303796508,-0.030710989521196146,0.35847053638515536,3.2005198636107997
1749296436699591936,0.0012534734601606975,-0.00016893734759556344,0.0006421873303796508,-0.030710989521196146,0.35847053638515536,3.2005198636107997
1749296436704592128,0.0012534734601606975,-0.00016893734759556344,0.0006421873303796508,-0.030710989521196146,0.35847053638515536,3.2005198636107997
1749296436709592576,0.0012534734601606975,-0.00016893734759556344,0.0006421873303796508,-0.030710989521196146,0.35847053638515536,3.2005198636107997
1749296436714594304,0.0012534734601606975,-0.00016893734759556344,0.0006421873303796508,-0.030710989521196146,0.35847053638515536,3.2005198636107997
1749296436719592448,0.0012534734601606975,-0.00016893734759556344,0.0006421873303796508,-0.030710989521196146,0.35847053638515536,3.2005198636107997
1749296436724600320,0.0012534734601606975,-0.00016893734759556344,0.0006421873303796508,-0.030710989521196146,0.35847053638515536,3.2005198636107997
1749296436729595392,0.0012534734601606975,-0.00016893734759556344,0.0006421873303796508,-0.030710989521196146,0.35847053638515536,3.2005198636107997
1749296436734595328,0.0012534734601606975,-0.00016893734759556344,0.0006421873303796508,-0.030710989521196146,0.35847053638515536,3.2005198636107997
1749296436739612416,0.0012534734601606975,-0.00016893734759556344,0.0006421873303796508,-0.030710989521196146,0.35847053638515536,3.2005198636107997
1749296436744604672,0.0012534734601606975,-0.00016893734759556344,0.0006421873303796508,-0.030710989521196146,0.35847053638515536,3.2005198636107997
1749296436749598976,0.0012534734601606975,-0.00016893734759556344,0.0006421873303796508,-0.030710989521196146,0.35847053638515536,3.2005198636107997
1749296436754600448,0.0012534734601606975,-0.00016893734759556344,0.0006421873303796508,-0.030710989521196146,0.35847053638515536,3.2005198636107997
1749296436762970112,0.0006884636336250846,-6.615583786503253e-05,2.276337670450908e-05,-0.02814600974461871,0.3640455643496389,3.203705557895238
1749296436764595456,0.0006884636336250846,-6.615583786503253e-05,2.276337670450908e-05,-0.02814600974461871,0.3640455643496389,3.203705557895238
1749296436769592320,0.0006884636336250846,-6.615583786503253e-05,2.276337670450908e-05,-0.02814600974461871,0.3640455643496389,3.203705557895238
1749296436774747136,0.0006884636336250846,-6.615583786503253e-05,2.276337670450908e-05,-0.02814600974461871,0.3640455643496389,3.203705557895238
1749296436779622656,0.0006884636336250846,-6.615583786503253e-05,2.276337670450908e-05,-0.02814600974461871,0.3640455643496389,3.203705557895238
1749296436784663296,0.0006884636336250846,-6.615583786503253e-05,2.276337670450908e-05,-0.02814600974461871,0.3640455643496389,3.203705557895238
1749296436789585408,0.0006884636336250846,-6.615583786503253e-05,2.276337670450908e-05,-0.02814600974461871,0.3640455643496389,3.203705557895238
1749296436794579456,0.0006884636336250846,-6.615583786503253e-05,2.276337670450908e-05,-0.02814600974461871,0.3640455643496389,3.203705557895238
1749296436799581440,0.0006884636336250846,-6.615583786503253e-05,2.276337670450908e-05,-0.02814600974461871,0.3640455643496389,3.203705557895238
1749296436804595200,0.0006884636336250846,-6.615583786503253e-05,2.276337670450908e-05,-0.02814600974461871,0.3640455643496389,3.203705557895238
1749296436809603072,0.0006884636336250846,-6.615583786503253e-05,2.276337670450908e-05,-0.02814600974461871,0.3640455643496389,3.203705557895238
1749296436814594304,0.0006884636336250846,-6.615583786503253e-05,2.276337670450908e-05,-0.02814600974461871,0.3640455643496389,3.203705557895238
1749296436819591680,0.0006884636336250846,-6.615583786503253e-05,2.276337670450908e-05,-0.02814600974461871,0.3640455643496389,3.203705557895238
1749296436824597504,0.0006884636336250846,-6.615583786503253e-05,2.276337670450908e-05,-0.02814600974461871,0.3640455643496389,3.203705557895238
1749296436829591040,0.0006884636336250846,-6.615583786503253e-05,2.276337670450908e-05,-0.02814600974461871,0.3640455643496389,3.203705557895238
1749296436834590464,0.0006884636336250846,-6.615583786503253e-05,2.276337670450908e-05,-0.02814600974461871,0.3640455643496389,3.203705557895238
1749296436839592192,0.0006884636336250846,-6.615583786503253e-05,2.276337670450908e-05,-0.02814600974461871,0.3640455643496389,3.203705557895238
1749296436844589056,0.0006884636336250846,-6.615583786503253e-05,2.276337670450908e-05,-0.02814600974461871,0.3640455643496389,3.203705557895238
1749296436849592064,0.0006884636336250846,-6.615583786503253e-05,2.276337670450908e-05,-0.02814600974461871,0.3640455643496389,3.203705557895238
1749296436854589696,0.0006884636336250846,-6.615583786503253e-05,2.276337670450908e-05,-0.02814600974461871,0.3640455643496389,3.203705557895238
1749296436859593728,0.0006884636336250846,-6.615583786503253e-05,2.276337670450908e-05,-0.02814600974461871,0.3640455643496389,3.203705557895238
1749296436864606976,0.0006884636336250846,-6.615583786503253e-05,2.276337670450908e-05,-0.02814600974461871,0.3640455643496389,3.203705557895238
1749296436869597696,0.0006884636336250846,-6.615583786503253e-05,2.276337670450908e-05,-0.02814600974461871,0.3640455643496389,3.203705557895238
1749296436881704704,0.0006884636336250846,-6.615583786503253e-05,2.276337670450908e-05,-0.02814600974461871,0.3640455643496389,3.203705557895238
1749296436882040320,0.0006884636336250846,-6.615583786503253e-05,2.276337670450908e-05,-0.02814600974461871,0.3640455643496389,3.203705557895238
1749296436884588800,0.0006884636336250846,-6.615583786503253e-05,2.276337670450908e-05,-0.02814600974461871,0.3640455643496389,3.203705557895238
1749296436889591808,0.0006884636336250846,-6.615583786503253e-05,2.276337670450908e-05,-0.02814600974461871,0.3640455643496389,3.203705557895238
1749296436894591232,0.0006884636336250846,-6.615583786503253e-05,2.276337670450908e-05,-0.02814600974461871,0.3640455643496389,3.203705557895238
1749296436899585024,0.0006884636336250846,-6.615583786503253e-05,2.276337670450908e-05,-0.02814600974461871,0.3640455643496389,3.203705557895238
1749296436904583936,0.0006884636336250846,-6.615583786503253e-05,2.276337670450908e-05,-0.02814600974461871,0.3640455643496389,3.203705557895238
1749296436909583616,0.0006884636336250846,-6.615583786503253e-05,2.276337670450908e-05,-0.02814600974461871,0.3640455643496389,3.203705557895238
1749296436914585088,0.0006884636336250846,-6.615583786503253e-05,2.276337670450908e-05,-0.02814600974461871,0.3640455643496389,3.203705557895238
1749296436919580416,0.0006884636336250846,-6.615583786503253e-05,2.276337670450908e-05,-0.02814600974461871,0.3640455643496389,3.203705557895238
1749296436924580608,0.0006884636336250846,-6.615583786503253e-05,2.276337670450908e-05,-0.02814600974461871,0.3640455643496389,3.203705557895238
1749296436929580288,0.0006884636336250846,-6.615583786503253e-05,2.276337670450908e-05,-0.02814600974461871,0.3640455643496389,3.203705557895238
1749296436934583808,0.0006884636336250846,-6.615583786503253e-05,2.276337670450908e-05,-0.02814600974461871,0.3640455643496389,3.203705557895238
1749296436939580928,0.0006884636336250846,-6.615583786503253e-05,2.276337670450908e-05,-0.02814600974461871,0.3640455643496389,3.203705557895238
1749296436944583680,0.0006884636336250846,-6.615583786503253e-05,2.276337670450908e-05,-0.02814600974461871,0.3640455643496389,3.203705557895238
1749296436949579776,0.0006884636336250846,-6.615583786503253e-05,2.276337670450908e-05,-0.02814600974461871,0.3640455643496389,3.203705557895238
1749296436954580992,0.0006884636336250846,-6.615583786503253e-05,2.276337670450908e-05,-0.02814600974461871,0.3640455643496389,3.203705557895238
1749296436959581440,0.0006884636336250846,-6.615583786503253e-05,2.276337670450908e-05,-0.02814600974461871,0.3640455643496389,3.203705557895238
1749296436964584192,0.0006884636336250846,-6.615583786503253e-05,2.276337670450908e-05,-0.02814600974461871,0.3640455643496389,3.203705557895238
1749296436969589504,0.0010755780452128502,-0.00030109221589678356,0.0005184602165986472,-0.029738702724192847,0.35239536150827766,3.201227337290896
1749296436974605312,0.0010755780452128502,-0.00030109221589678356,0.0005184602165986472,-0.029738702724192847,0.35239536150827766,3.201227337290896
1749296436979588096,0.0010755780452128502,-0.00030109221589678356,0.0005184602165986472,-0.029738702724192847,0.35239536150827766,3.201227337290896
1749296436984588288,0.0010755780452128502,-0.00030109221589678356,0.0005184602165986472,-0.029738702724192847,0.35239536150827766,3.201227337290896
1749296436989584896,0.0010755780452128502,-0.00030109221589678356,0.0005184602165986472,-0.029738702724192847,0.35239536150827766,3.201227337290896
1749296436994585600,0.0010755780452128502,-0.00030109221589678356,0.0005184602165986472,-0.029738702724192847,0.35239536150827766,3.201227337290896
1749296436999583744,0.0010755780452128502,-0.00030109221589678356,0.0005184602165986472,-0.029738702724192847,0.35239536150827766,3.201227337290896
1749296437004584448,0.0010755780452128502,-0.00030109221589678356,0.0005184602165986472,-0.029738702724192847,0.35239536150827766,3.201227337290896
1749296437009586688,0.0010755780452128502,-0.00030109221589678356,0.0005184602165986472,-0.029738702724192847,0.35239536150827766,3.201227337290896
1749296437014588672,0.0010755780452128502,-0.00030109221589678356,0.0005184602165986472,-0.029738702724192847,0.35239536150827766,3.201227337290896
1749296437019585536,0.0010755780452128502,-0.00030109221589678356,0.0005184602165986472,-0.029738702724192847,0.35239536150827766,3.201227337290896
1749296437024585728,0.0010755780452128502,-0.00030109221589678356,0.0005184602165986472,-0.029738702724192847,0.35239536150827766,3.201227337290896
1749296437029584128,0.0010755780452128502,-0.00030109221589678356,0.0005184602165986472,-0.029738702724192847,0.35239536150827766,3.201227337290896
1749296437034586624,0.0010755780452128502,-0.00030109221589678356,0.0005184602165986472,-0.029738702724192847,0.35239536150827766,3.201227337290896
1749296437039582976,0.0010755780452128502,-0.00030109221589678356,0.0005184602165986472,-0.029738702724192847,0.35239536150827766,3.201227337290896
1749296437044587008,0.0010755780452128502,-0.00030109221589678356,0.0005184602165986472,-0.029738702724192847,0.35239536150827766,3.201227337290896
1749296437049622016,0.0010755780452128502,-0.00030109221589678356,0.0005184602165986472,-0.029738702724192847,0.35239536150827766,3.201227337290896
