#timestamp [ns],w_RS_S_x [rad s^-1],w_RS_S_y [rad s^-1],w_RS_S_z [rad s^-1],a_RS_S_x [m s^-2],a_RS_S_y [m s^-2],a_RS_S_z [m s^-2]
1750194798718840832,-0.0002582590768800652,-0.00021375029203240606,-0.00021980655183665305,-0.13897958600438,0.3438211337419459,3.198059010745772
1750194798723836928,-0.0002582590768800652,-0.00021375029203240606,-0.00021980655183665305,-0.13897958600438,0.3438211337419459,3.198059010745772
1750194798728811264,-0.0002582590768800652,-0.00021375029203240606,-0.00021980655183665305,-0.13897958600438,0.3438211337419459,3.198059010745772
1750194798733809152,-0.0002582590768800652,-0.00021375029203240606,-0.00021980655183665305,-0.13897958600438,0.3438211337419459,3.198059010745772
1750194798738807040,-0.0002582590768800652,-0.00021375029203240606,-0.00021980655183665305,-0.13897958600438,0.3438211337419459,3.198059010745772
1750194798743805952,-0.0002582590768800652,-0.00021375029203240606,-0.00021980655183665305,-0.13897958600438,0.3438211337419459,3.198059010745772
1750194798748805632,-0.0002582590768800652,-0.00021375029203240606,-0.00021980655183665305,-0.13897958600438,0.3438211337419459,3.198059010745772
1750194798753802240,-0.0002582590768800652,-0.00021375029203240606,-0.00021980655183665305,-0.13897958600438,0.3438211337419459,3.198059010745772
1750194798758791680,-0.0002582590768800652,-0.00021375029203240606,-0.00021980655183665305,-0.13897958600438,0.3438211337419459,3.198059010745772
1750194798763788800,-0.0002582590768800652,-0.00021375029203240606,-0.00021980655183665305,-0.13897958600438,0.3438211337419459,3.198059010745772
1750194798768834816,-0.00019921908409215814,-0.0001597556684953698,-0.00031144701600539304,-0.1371331866450275,0.34136655122366616,3.199142750467088
1750194798773803520,-0.00019921908409215814,-0.0001597556684953698,-0.00031144701600539304,-0.1371331866450275,0.34136655122366616,3.199142750467088
1750194798778799872,-0.00019921908409215814,-0.0001597556684953698,-0.00031144701600539304,-0.1371331866450275,0.34136655122366616,3.199142750467088
1750194798783802112,-0.00019921908409215814,-0.0001597556684953698,-0.00031144701600539304,-0.1371331866450275,0.34136655122366616,3.199142750467088
1750194798788808960,-0.00019921908409215814,-0.0001597556684953698,-0.00031144701600539304,-0.1371331866450275,0.34136655122366616,3.199142750467088
1750194798793814272,-0.00019921908409215814,-0.0001597556684953698,-0.00031144701600539304,-0.1371331866450275,0.34136655122366616,3.199142750467088
1750194798798805760,-0.00019921908409215814,-0.0001597556684953698,-0.00031144701600539304,-0.1371331866450275,0.34136655122366616,3.199142750467088
1750194798803806720,-0.00019921908409215814,-0.0001597556684953698,-0.00031144701600539304,-0.1371331866450275,0.34136655122366616,3.199142750467088
1750194798808805376,-0.00019921908409215814,-0.0001597556684953698,-0.00031144701600539304,-0.1371331866450275,0.34136655122366616,3.199142750467088
1750194798813811968,-0.00019921908409215814,-0.0001597556684953698,-0.00031144701600539304,-0.1371331866450275,0.34136655122366616,3.199142750467088
1750194798818810368,-0.00019921908409215814,-0.0001597556684953698,-0.00031144701600539304,-0.1371331866450275,0.34136655122366616,3.199142750467088
1750194798823804672,-0.00019921908409215814,-0.0001597556684953698,-0.00031144701600539304,-0.1371331866450275,0.34136655122366616,3.199142750467088
1750194798828807680,-0.00019921908409215814,-0.0001597556684953698,-0.00031144701600539304,-0.1371331866450275,0.34136655122366616,3.199142750467088
1750194798833803520,-0.00019921908409215814,-0.0001597556684953698,-0.00031144701600539304,-0.1371331866450275,0.34136655122366616,3.199142750467088
1750194798838804992,-0.00019921908409215814,-0.0001597556684953698,-0.00031144701600539304,-0.1371331866450275,0.34136655122366616,3.199142750467088
1750194798843806208,-0.00019921908409215814,-0.0001597556684953698,-0.00031144701600539304,-0.1371331866450275,0.34136655122366616,3.199142750467088
1750194798848807936,-0.00019921908409215814,-0.0001597556684953698,-0.00031144701600539304,-0.1371331866450275,0.34136655122366616,3.199142750467088
1750194798853818368,-0.00019921908409215814,-0.0001597556684953698,-0.00031144701600539304,-0.1371331866450275,0.34136655122366616,3.199142750467088
1750194798858809856,-0.00019921908409215814,-0.0001597556684953698,-0.00031144701600539304,-0.1371331866450275,0.34136655122366616,3.199142750467088
1750194798863806976,-0.00019921908409215814,-0.0001597556684953698,-0.00031144701600539304,-0.1371331866450275,0.34136655122366616,3.199142750467088
1750194798868804352,-0.00019921908409215814,-0.0001597556684953698,-0.00031144701600539304,-0.1371331866450275,0.34136655122366616,3.199142750467088
1750194798873811456,-0.00019921908409215814,-0.0001597556684953698,-0.00031144701600539304,-0.1371331866450275,0.34136655122366616,3.199142750467088
1750194798878806528,-0.00019921908409215814,-0.0001597556684953698,-0.00031144701600539304,-0.1371331866450275,0.34136655122366616,3.199142750467088
1750194798883804928,-0.00019921908409215814,-0.0001597556684953698,-0.00031144701600539304,-0.1371331866450275,0.34136655122366616,3.199142750467088
1750194798890217984,-8.565246676953702e-05,-0.0001458394888267709,-0.0004096432679513207,-0.13632701547784346,0.3400377944957218,3.200577712573095
1750194798893828608,-8.565246676953702e-05,-0.0001458394888267709,-0.0004096432679513207,-0.13632701547784346,0.3400377944957218,3.200577712573095
1750194798898811136,-8.565246676953702e-05,-0.0001458394888267709,-0.0004096432679513207,-0.13632701547784346,0.3400377944957218,3.200577712573095
1750194798903798272,-8.565246676953702e-05,-0.0001458394888267709,-0.0004096432679513207,-0.13632701547784346,0.3400377944957218,3.200577712573095
1750194798908926208,-8.565246676953702e-05,-0.0001458394888267709,-0.0004096432679513207,-0.13632701547784346,0.3400377944957218,3.200577712573095
1750194798913826304,-8.565246676953702e-05,-0.0001458394888267709,-0.0004096432679513207,-0.13632701547784346,0.3400377944957218,3.200577712573095
1750194798918833920,-8.565246676953702e-05,-0.0001458394888267709,-0.0004096432679513207,-0.13632701547784346,0.3400377944957218,3.200577712573095
1750194798923804928,-8.565246676953702e-05,-0.0001458394888267709,-0.0004096432679513207,-0.13632701547784346,0.3400377944957218,3.200577712573095
1750194798928808960,-8.565246676953702e-05,-0.0001458394888267709,-0.0004096432679513207,-0.13632701547784346,0.3400377944957218,3.200577712573095
1750194798933809664,-8.565246676953702e-05,-0.0001458394888267709,-0.0004096432679513207,-0.13632701547784346,0.3400377944957218,3.200577712573095
1750194798938824960,-8.565246676953702e-05,-0.0001458394888267709,-0.0004096432679513207,-0.13632701547784346,0.3400377944957218,3.200577712573095
1750194798943804160,-8.565246676953702e-05,-0.0001458394888267709,-0.0004096432679513207,-0.13632701547784346,0.3400377944957218,3.200577712573095
1750194798948795392,-8.565246676953702e-05,-0.0001458394888267709,-0.0004096432679513207,-0.13632701547784346,0.3400377944957218,3.200577712573095
1750194798953797888,-8.565246676953702e-05,-0.0001458394888267709,-0.0004096432679513207,-0.13632701547784346,0.3400377944957218,3.200577712573095
1750194798958800128,-8.565246676953702e-05,-0.0001458394888267709,-0.0004096432679513207,-0.13632701547784346,0.3400377944957218,3.200577712573095
1750194798963803136,-8.565246676953702e-05,-0.0001458394888267709,-0.0004096432679513207,-0.13632701547784346,0.3400377944957218,3.200577712573095
1750194798968802048,-8.565246676953702e-05,-0.0001458394888267709,-0.0004096432679513207,-0.13632701547784346,0.3400377944957218,3.200577712573095
1750194798973819136,-8.565246676953702e-05,-0.0001458394888267709,-0.0004096432679513207,-0.13632701547784346,0.3400377944957218,3.200577712573095
1750194798978804480,-8.565246676953702e-05,-0.0001458394888267709,-0.0004096432679513207,-0.13632701547784346,0.3400377944957218,3.200577712573095
1750194798983792128,-8.565246676953702e-05,-0.0001458394888267709,-0.0004096432679513207,-0.13632701547784346,0.3400377944957218,3.200577712573095
1750194798988792832,-8.565246676953702e-05,-0.0001458394888267709,-0.0004096432679513207,-0.13632701547784346,0.3400377944957218,3.200577712573095
1750194798993799680,-8.565246676953702e-05,-0.0001458394888267709,-0.0004096432679513207,-0.13632701547784346,0.3400377944957218,3.200577712573095
1750194798998789376,-8.565246676953702e-05,-0.0001458394888267709,-0.0004096432679513207,-0.13632701547784346,0.3400377944957218,3.200577712573095
1750194799003802624,-8.565246676953702e-05,-0.0001458394888267709,-0.0004096432679513207,-0.13632701547784346,0.3400377944957218,3.200577712573095
1750194799008808960,-8.565246676953702e-05,-0.0001458394888267709,-0.0004096432679513207,-0.13632701547784346,0.3400377944957218,3.200577712573095
1750194799024659456,-8.565246676953702e-05,-0.0001458394888267709,-0.0004096432679513207,-0.13632701547784346,0.3400377944957218,3.200577712573095
1750194799025176832,-8.565246676953702e-05,-0.0001458394888267709,-0.0004096432679513207,-0.13632701547784346,0.3400377944957218,3.200577712573095
1750194799025303552,-8.565246676953702e-05,-0.0001458394888267709,-0.0004096432679513207,-0.13632701547784346,0.3400377944957218,3.200577712573095
1750194799028837632,-8.565246676953702e-05,-0.0001458394888267709,-0.0004096432679513207,-0.13632701547784346,0.3400377944957218,3.200577712573095
1750194799033789952,-8.565246676953702e-05,-0.0001458394888267709,-0.0004096432679513207,-0.13632701547784346,0.3400377944957218,3.200577712573095
1750194799038789120,-8.565246676953702e-05,-0.0001458394888267709,-0.0004096432679513207,-0.13632701547784346,0.3400377944957218,3.200577712573095
1750194799043787520,-8.565246676953702e-05,-0.0001458394888267709,-0.0004096432679513207,-0.13632701547784346,0.3400377944957218,3.200577712573095
1750194799048788736,-8.565246676953702e-05,-0.0001458394888267709,-0.0004096432679513207,-0.13632701547784346,0.3400377944957218,3.200577712573095
1750194799053788928,-8.565246676953702e-05,-0.0001458394888267709,-0.0004096432679513207,-0.13632701547784346,0.3400377944957218,3.200577712573095
1750194799058787328,-8.565246676953702e-05,-0.0001458394888267709,-0.0004096432679513207,-0.13632701547784346,0.3400377944957218,3.200577712573095
1750194799063787008,-8.565246676953702e-05,-0.0001458394888267709,-0.0004096432679513207,-0.13632701547784346,0.3400377944957218,3.200577712573095
1750194799068786688,-8.565246676953702e-05,-0.0001458394888267709,-0.0004096432679513207,-0.13632701547784346,0.3400377944957218,3.200577712573095
1750194799073788416,-8.565246676953702e-05,-0.0001458394888267709,-0.0004096432679513207,-0.13632701547784346,0.3400377944957218,3.200577712573095
1750194799078787328,-8.565246676953702e-05,-0.0001458394888267709,-0.0004096432679513207,-0.13632701547784346,0.3400377944957218,3.200577712573095
1750194799083787520,-8.565246676953702e-05,-0.0001458394888267709,-0.0004096432679513207,-0.13632701547784346,0.3400377944957218,3.200577712573095
1750194799088796160,-8.565246676953702e-05,-0.0001458394888267709,-0.0004096432679513207,-0.13632701547784346,0.3400377944957218,3.200577712573095
1750194799093798400,-8.565246676953702e-05,-0.0001458394888267709,-0.0004096432679513207,-0.13632701547784346,0.3400377944957218,3.200577712573095
1750194799098800640,-8.565246676953702e-05,-0.0001458394888267709,-0.0004096432679513207,-0.13632701547784346,0.3400377944957218,3.200577712573095
1750194799103772160,-8.565246676953702e-05,-0.0001458394888267709,-0.0004096432679513207,-0.13632701547784346,0.3400377944957218,3.200577712573095
1750194799108819712,-8.565246676953702e-05,-0.0001458394888267709,-0.0004096432679513207,-0.13632701547784346,0.3400377944957218,3.200577712573095
1750194799113839872,-8.565246676953702e-05,-0.0001458394888267709,-0.0004096432679513207,-0.13632701547784346,0.3400377944957218,3.200577712573095
1750194799118824960,-0.00013136320791474945,-0.0002074581549641828,-0.0004130529122096851,-0.13842234180102966,0.3484252325966138,3.2000494091703624
1750194799123814400,-0.00013136320791474945,-0.0002074581549641828,-0.0004130529122096851,-0.13842234180102966,0.3484252325966138,3.2000494091703624
1750194799128824064,-0.00013136320791474945,-0.0002074581549641828,-0.0004130529122096851,-0.13842234180102966,0.3484252325966138,3.2000494091703624
1750194799133838848,-0.00013136320791474945,-0.0002074581549641828,-0.0004130529122096851,-0.13842234180102966,0.3484252325966138,3.2000494091703624
1750194799138840064,-0.00013136320791474945,-0.0002074581549641828,-0.0004130529122096851,-0.13842234180102966,0.3484252325966138,3.2000494091703624
1750194799143836672,-0.00013136320791474945,-0.0002074581549641828,-0.0004130529122096851,-0.13842234180102966,0.3484252325966138,3.2000494091703624
1750194799148836352,-0.00013136320791474945,-0.0002074581549641828,-0.0004130529122096851,-0.13842234180102966,0.3484252325966138,3.2000494091703624
1750194799153842688,-0.00013136320791474945,-0.0002074581549641828,-0.0004130529122096851,-0.13842234180102966,0.3484252325966138,3.2000494091703624
1750194799158836480,-0.00013136320791474945,-0.0002074581549641828,-0.0004130529122096851,-0.13842234180102966,0.3484252325966138,3.2000494091703624
1750194799163836928,-0.00013136320791474945,-0.0002074581549641828,-0.0004130529122096851,-0.13842234180102966,0.3484252325966138,3.2000494091703624
1750194799168835840,-0.00013136320791474945,-0.0002074581549641828,-0.0004130529122096851,-0.13842234180102966,0.3484252325966138,3.2000494091703624
1750194799173853440,-0.00013136320791474945,-0.0002074581549641828,-0.0004130529122096851,-0.13842234180102966,0.3484252325966138,3.2000494091703624
1750194799178836224,-0.00013136320791474945,-0.0002074581549641828,-0.0004130529122096851,-0.13842234180102966,0.3484252325966138,3.2000494091703624
1750194799183824384,-0.00013136320791474945,-0.0002074581549641828,-0.0004130529122096851,-0.13842234180102966,0.3484252325966138,3.2000494091703624
1750194799188812544,-0.00013136320791474945,-0.0002074581549641828,-0.0004130529122096851,-0.13842234180102966,0.3484252325966138,3.2000494091703624
1750194799193841920,-0.00013136320791474945,-0.0002074581549641828,-0.0004130529122096851,-0.13842234180102966,0.3484252325966138,3.2000494091703624
1750194799198836224,-0.00013136320791474945,-0.0002074581549641828,-0.0004130529122096851,-0.13842234180102966,0.3484252325966138,3.2000494091703624
1750194799203824896,-0.00013136320791474945,-0.0002074581549641828,-0.0004130529122096851,-0.13842234180102966,0.3484252325966138,3.2000494091703624
1750194799208813824,-0.00013136320791474945,-0.0002074581549641828,-0.0004130529122096851,-0.13842234180102966,0.3484252325966138,3.2000494091703624
1750194799213805568,-0.00013136320791474945,-0.0002074581549641828,-0.0004130529122096851,-0.13842234180102966,0.3484252325966138,3.2000494091703624
1750194799218804736,-0.00013136320791474945,-0.0002074581549641828,-0.0004130529122096851,-0.13842234180102966,0.3484252325966138,3.2000494091703624
1750194799223807744,-0.00013136320791474945,-0.0002074581549641828,-0.0004130529122096851,-0.13842234180102966,0.3484252325966138,3.2000494091703624
1750194799228804864,-0.00013136320791474945,-0.0002074581549641828,-0.0004130529122096851,-0.13842234180102966,0.3484252325966138,3.2000494091703624
1750194799233800192,-0.00013136320791474945,-0.0002074581549641828,-0.0004130529122096851,-0.13842234180102966,0.3484252325966138,3.2000494091703624
1750194799240667392,-0.00015760379348525266,-0.0003005875090667818,-0.0001232649815852934,-0.14018622338494552,0.3388419765687443,3.197170304427336
1750194799243875840,-0.00015760379348525266,-0.0003005875090667818,-0.0001232649815852934,-0.14018622338494552,0.3388419765687443,3.197170304427336
1750194799248811264,-0.00015760379348525266,-0.0003005875090667818,-0.0001232649815852934,-0.14018622338494552,0.3388419765687443,3.197170304427336
1750194799253801984,-0.00015760379348525266,-0.0003005875090667818,-0.0001232649815852934,-0.14018622338494552,0.3388419765687443,3.197170304427336
1750194799258838016,-0.00015760379348525266,-0.0003005875090667818,-0.0001232649815852934,-0.14018622338494552,0.3388419765687443,3.197170304427336
1750194799263818752,-0.00015760379348525266,-0.0003005875090667818,-0.0001232649815852934,-0.14018622338494552,0.3388419765687443,3.197170304427336
1750194799268849920,-0.00015760379348525266,-0.0003005875090667818,-0.0001232649815852934,-0.14018622338494552,0.3388419765687443,3.197170304427336
1750194799273801472,-0.00015760379348525266,-0.0003005875090667818,-0.0001232649815852934,-0.14018622338494552,0.3388419765687443,3.197170304427336
1750194799278797568,-0.00015760379348525266,-0.0003005875090667818,-0.0001232649815852934,-0.14018622338494552,0.3388419765687443,3.197170304427336
1750194799283795456,-0.00015760379348525266,-0.0003005875090667818,-0.0001232649815852934,-0.14018622338494552,0.3388419765687443,3.197170304427336
1750194799288789760,-0.00015760379348525266,-0.0003005875090667818,-0.0001232649815852934,-0.14018622338494552,0.3388419765687443,3.197170304427336
1750194799293808384,-0.00015760379348525266,-0.0003005875090667818,-0.0001232649815852934,-0.14018622338494552,0.3388419765687443,3.197170304427336
1750194799298793728,-0.00015760379348525266,-0.0003005875090667818,-0.0001232649815852934,-0.14018622338494552,0.3388419765687443,3.197170304427336
1750194799303808768,-0.00015760379348525266,-0.0003005875090667818,-0.0001232649815852934,-0.14018622338494552,0.3388419765687443,3.197170304427336
1750194799308806656,-0.00015760379348525266,-0.0003005875090667818,-0.0001232649815852934,-0.14018622338494552,0.3388419765687443,3.197170304427336
1750194799313803264,-0.00015760379348525266,-0.0003005875090667818,-0.0001232649815852934,-0.14018622338494552,0.3388419765687443,3.197170304427336
1750194799318802176,-0.00015760379348525266,-0.0003005875090667818,-0.0001232649815852934,-0.14018622338494552,0.3388419765687443,3.197170304427336
1750194799323835136,-0.00015760379348525266,-0.0003005875090667818,-0.0001232649815852934,-0.14018622338494552,0.3388419765687443,3.197170304427336
1750194799328836608,-0.00015760379348525266,-0.0003005875090667818,-0.0001232649815852934,-0.14018622338494552,0.3388419765687443,3.197170304427336
1750194799333838848,-0.00015760379348525266,-0.0003005875090667818,-0.0001232649815852934,-0.14018622338494552,0.3388419765687443,3.197170304427336
1750194799338846464,-0.00015760379348525266,-0.0003005875090667818,-0.0001232649815852934,-0.14018622338494552,0.3388419765687443,3.197170304427336
1750194799343836928,-0.00015760379348525266,-0.0003005875090667818,-0.0001232649815852934,-0.14018622338494552,0.3388419765687443,3.197170304427336
1750194799348838400,-0.00015760379348525266,-0.0003005875090667818,-0.0001232649815852934,-0.14018622338494552,0.3388419765687443,3.197170304427336
1750194799353837568,-0.00015760379348525266,-0.0003005875090667818,-0.0001232649815852934,-0.14018622338494552,0.3388419765687443,3.197170304427336
1750194799358839808,-0.00015760379348525266,-0.0003005875090667818,-0.0001232649815852934,-0.14018622338494552,0.3388419765687443,3.197170304427336
1750194799375060736,-0.00015760379348525266,-0.0003005875090667818,-0.0001232649815852934,-0.14018622338494552,0.3388419765687443,3.197170304427336
1750194799375506176,-0.00015760379348525266,-0.0003005875090667818,-0.0001232649815852934,-0.14018622338494552,0.3388419765687443,3.197170304427336
1750194799375548928,-0.00015760379348525266,-0.0003005875090667818,-0.0001232649815852934,-0.14018622338494552,0.3388419765687443,3.197170304427336
1750194799378789632,-0.00015760379348525266,-0.0003005875090667818,-0.0001232649815852934,-0.14018622338494552,0.3388419765687443,3.197170304427336
1750194799383789568,-0.00015760379348525266,-0.0003005875090667818,-0.0001232649815852934,-0.14018622338494552,0.3388419765687443,3.197170304427336
1750194799388787712,-0.00015760379348525266,-0.0003005875090667818,-0.0001232649815852934,-0.14018622338494552,0.3388419765687443,3.197170304427336
1750194799393786880,-0.00015760379348525266,-0.0003005875090667818,-0.0001232649815852934,-0.14018622338494552,0.3388419765687443,3.197170304427336
1750194799398787584,-0.00015760379348525266,-0.0003005875090667818,-0.0001232649815852934,-0.14018622338494552,0.3388419765687443,3.197170304427336
1750194799403786240,-0.00015760379348525266,-0.0003005875090667818,-0.0001232649815852934,-0.14018622338494552,0.3388419765687443,3.197170304427336
1750194799408790272,-0.00015760379348525266,-0.0003005875090667818,-0.0001232649815852934,-0.14018622338494552,0.3388419765687443,3.197170304427336
1750194799413787648,-0.00015760379348525266,-0.0003005875090667818,-0.0001232649815852934,-0.14018622338494552,0.3388419765687443,3.197170304427336
1750194799418787072,-0.00015760379348525266,-0.0003005875090667818,-0.0001232649815852934,-0.14018622338494552,0.3388419765687443,3.197170304427336
1750194799423785984,-0.00015760379348525266,-0.0003005875090667818,-0.0001232649815852934,-0.14018622338494552,0.3388419765687443,3.197170304427336
1750194799428786432,-0.00015760379348525266,-0.0003005875090667818,-0.0001232649815852934,-0.14018622338494552,0.3388419765687443,3.197170304427336
1750194799433785600,-0.00015760379348525266,-0.0003005875090667818,-0.0001232649815852934,-0.14018622338494552,0.3388419765687443,3.197170304427336
1750194799438787328,-0.00015760379348525266,-0.0003005875090667818,-0.0001232649815852934,-0.14018622338494552,0.3388419765687443,3.197170304427336
1750194799443785472,-0.00015760379348525266,-0.0003005875090667818,-0.0001232649815852934,-0.14018622338494552,0.3388419765687443,3.197170304427336
1750194799448786176,-0.00015760379348525266,-0.0003005875090667818,-0.0001232649815852934,-0.14018622338494552,0.3388419765687443,3.197170304427336
1750194799453785856,-0.00015760379348525266,-0.0003005875090667818,-0.0001232649815852934,-0.14018622338494552,0.3388419765687443,3.197170304427336
1750194799458785536,-0.00015760379348525266,-0.0003005875090667818,-0.0001232649815852934,-0.14018622338494552,0.3388419765687443,3.197170304427336
1750194799463785472,-0.00015760379348525266,-0.0003005875090667818,-0.0001232649815852934,-0.14018622338494552,0.3388419765687443,3.197170304427336
1750194799469387520,-0.0002444447968275725,-0.0001487493707905498,-0.000765706798310158,-0.13476670731826945,0.3440577081239552,3.2015089891268307
1750194799473829120,-0.0002444447968275725,-0.0001487493707905498,-0.000765706798310158,-0.13476670731826945,0.3440577081239552,3.2015089891268307
1750194799478817024,-0.0002444447968275725,-0.0001487493707905498,-0.000765706798310158,-0.13476670731826945,0.3440577081239552,3.2015089891268307
1750194799483814144,-0.0002444447968275725,-0.0001487493707905498,-0.000765706798310158,-0.13476670731826945,0.3440577081239552,3.2015089891268307
1750194799488816384,-0.0002444447968275725,-0.0001487493707905498,-0.000765706798310158,-0.13476670731826945,0.3440577081239552,3.2015089891268307
1750194799493813248,-0.0002444447968275725,-0.0001487493707905498,-0.000765706798310158,-0.13476670731826945,0.3440577081239552,3.2015089891268307
1750194799498817792,-0.0002444447968275725,-0.0001487493707905498,-0.000765706798310158,-0.13476670731826945,0.3440577081239552,3.2015089891268307
1750194799503814656,-0.0002444447968275725,-0.0001487493707905498,-0.000765706798310158,-0.13476670731826945,0.3440577081239552,3.2015089891268307
1750194799508814080,-0.0002444447968275725,-0.0001487493707905498,-0.000765706798310158,-0.13476670731826945,0.3440577081239552,3.2015089891268307
1750194799513812224,-0.0002444447968275725,-0.0001487493707905498,-0.000765706798310158,-0.13476670731826945,0.3440577081239552,3.2015089891268307
1750194799518808832,-0.0002444447968275725,-0.0001487493707905498,-0.000765706798310158,-0.13476670731826945,0.3440577081239552,3.2015089891268307
1750194799523814400,-0.0002444447968275725,-0.0001487493707905498,-0.000765706798310158,-0.13476670731826945,0.3440577081239552,3.2015089891268307
1750194799528815616,-0.0002444447968275725,-0.0001487493707905498,-0.000765706798310158,-0.13476670731826945,0.3440577081239552,3.2015089891268307
1750194799533817344,-0.0002444447968275725,-0.0001487493707905498,-0.000765706798310158,-0.13476670731826945,0.3440577081239552,3.2015089891268307
1750194799538813440,-0.0002444447968275725,-0.0001487493707905498,-0.000765706798310158,-0.13476670731826945,0.3440577081239552,3.2015089891268307
1750194799543813120,-0.0002444447968275725,-0.0001487493707905498,-0.000765706798310158,-0.13476670731826945,0.3440577081239552,3.2015089891268307
1750194799548811776,-0.0002444447968275725,-0.0001487493707905498,-0.000765706798310158,-0.13476670731826945,0.3440577081239552,3.2015089891268307
1750194799553811200,-0.0002444447968275725,-0.0001487493707905498,-0.000765706798310158,-0.13476670731826945,0.3440577081239552,3.2015089891268307
1750194799558831104,-0.0002444447968275725,-0.0001487493707905498,-0.000765706798310158,-0.13476670731826945,0.3440577081239552,3.2015089891268307
1750194799563823872,-0.0002444447968275725,-0.0001487493707905498,-0.000765706798310158,-0.13476670731826945,0.3440577081239552,3.2015089891268307
1750194799568809216,-0.0002444447968275725,-0.0001487493707905498,-0.000765706798310158,-0.13476670731826945,0.3440577081239552,3.2015089891268307
1750194799573820160,-0.0002444447968275725,-0.0001487493707905498,-0.000765706798310158,-0.13476670731826945,0.3440577081239552,3.2015089891268307
1750194799578823168,-0.0002444447968275725,-0.0001487493707905498,-0.000765706798310158,-0.13476670731826945,0.3440577081239552,3.2015089891268307
1750194799583814656,-0.0002444447968275725,-0.0001487493707905498,-0.000765706798310158,-0.13476670731826945,0.3440577081239552,3.2015089891268307
1750194799588811008,-0.0002444447968275725,-0.0001487493707905498,-0.000765706798310158,-0.13476670731826945,0.3440577081239552,3.2015089891268307
1750194799593838592,-0.0003965821429489313,-1.1241478135042697e-05,-0.00044374850213308673,-0.13943721554856328,0.34327777546494637,3.1988221185882795
1750194799598806784,-0.0003965821429489313,-1.1241478135042697e-05,-0.00044374850213308673,-0.13943721554856328,0.34327777546494637,3.1988221185882795
1750194799603802368,-0.0003965821429489313,-1.1241478135042697e-05,-0.00044374850213308673,-0.13943721554856328,0.34327777546494637,3.1988221185882795
1750194799608974592,-0.0003965821429489313,-1.1241478135042697e-05,-0.00044374850213308673,-0.13943721554856328,0.34327777546494637,3.1988221185882795
1750194799613970176,-0.0003965821429489313,-1.1241478135042697e-05,-0.00044374850213308673,-0.13943721554856328,0.34327777546494637,3.1988221185882795
1750194799618835712,-0.0003965821429489313,-1.1241478135042697e-05,-0.00044374850213308673,-0.13943721554856328,0.34327777546494637,3.1988221185882795
1750194799623796992,-0.0003965821429489313,-1.1241478135042697e-05,-0.00044374850213308673,-0.13943721554856328,0.34327777546494637,3.1988221185882795
1750194799628794880,-0.0003965821429489313,-1.1241478135042697e-05,-0.00044374850213308673,-0.13943721554856328,0.34327777546494637,3.1988221185882795
1750194799633798912,-0.0003965821429489313,-1.1241478135042697e-05,-0.00044374850213308673,-0.13943721554856328,0.34327777546494637,3.1988221185882795
1750194799638804480,-0.0003965821429489313,-1.1241478135042697e-05,-0.00044374850213308673,-0.13943721554856328,0.34327777546494637,3.1988221185882795
1750194799643796480,-0.0003965821429489313,-1.1241478135042697e-05,-0.00044374850213308673,-0.13943721554856328,0.34327777546494637,3.1988221185882795
1750194799648799488,-0.0003965821429489313,-1.1241478135042697e-05,-0.00044374850213308673,-0.13943721554856328,0.34327777546494637,3.1988221185882795
1750194799653812992,-0.0003965821429489313,-1.1241478135042697e-05,-0.00044374850213308673,-0.13943721554856328,0.34327777546494637,3.1988221185882795
1750194799658811136,-0.0003965821429489313,-1.1241478135042697e-05,-0.00044374850213308673,-0.13943721554856328,0.34327777546494637,3.1988221185882795
1750194799663797248,-0.0003965821429489313,-1.1241478135042697e-05,-0.00044374850213308673,-0.13943721554856328,0.34327777546494637,3.1988221185882795
1750194799668800000,-0.0003965821429489313,-1.1241478135042697e-05,-0.00044374850213308673,-0.13943721554856328,0.34327777546494637,3.1988221185882795
1750194799673805056,-0.0003965821429489313,-1.1241478135042697e-05,-0.00044374850213308673,-0.13943721554856328,0.34327777546494637,3.1988221185882795
1750194799678769408,-0.0003965821429489313,-1.1241478135042697e-05,-0.00044374850213308673,-0.13943721554856328,0.34327777546494637,3.1988221185882795
1750194799683798528,-0.0003965821429489313,-1.1241478135042697e-05,-0.00044374850213308673,-0.13943721554856328,0.34327777546494637,3.1988221185882795
1750194799688792832,-0.0003965821429489313,-1.1241478135042697e-05,-0.00044374850213308673,-0.13943721554856328,0.34327777546494637,3.1988221185882795
1750194799693823744,-0.0003965821429489313,-1.1241478135042697e-05,-0.00044374850213308673,-0.13943721554856328,0.34327777546494637,3.1988221185882795
1750194799698814976,-0.0003965821429489313,-1.1241478135042697e-05,-0.00044374850213308673,-0.13943721554856328,0.34327777546494637,3.1988221185882795
1750194799703838464,-0.0003965821429489313,-1.1241478135042697e-05,-0.00044374850213308673,-0.13943721554856328,0.34327777546494637,3.1988221185882795
1750194799708811008,-0.0003965821429489313,-1.1241478135042697e-05,-0.00044374850213308673,-0.13943721554856328,0.34327777546494637,3.1988221185882795
1750194799725819392,-0.0003965821429489313,-1.1241478135042697e-05,-0.00044374850213308673,-0.13943721554856328,0.34327777546494637,3.1988221185882795
1750194799726367744,-0.0003965821429489313,-1.1241478135042697e-05,-0.00044374850213308673,-0.13943721554856328,0.34327777546494637,3.1988221185882795
1750194799726507520,-0.0003965821429489313,-1.1241478135042697e-05,-0.00044374850213308673,-0.13943721554856328,0.34327777546494637,3.1988221185882795
1750194799728822272,-0.0003965821429489313,-1.1241478135042697e-05,-0.00044374850213308673,-0.13943721554856328,0.34327777546494637,3.1988221185882795
1750194799733814528,-0.0003965821429489313,-1.1241478135042697e-05,-0.00044374850213308673,-0.13943721554856328,0.34327777546494637,3.1988221185882795
1750194799738811904,-0.0003965821429489313,-1.1241478135042697e-05,-0.00044374850213308673,-0.13943721554856328,0.34327777546494637,3.1988221185882795
1750194799743815168,-0.0003965821429489313,-1.1241478135042697e-05,-0.00044374850213308673,-0.13943721554856328,0.34327777546494637,3.1988221185882795
1750194799748806912,-0.0003965821429489313,-1.1241478135042697e-05,-0.00044374850213308673,-0.13943721554856328,0.34327777546494637,3.1988221185882795
1750194799753812992,-0.0003965821429489313,-1.1241478135042697e-05,-0.00044374850213308673,-0.13943721554856328,0.34327777546494637,3.1988221185882795
1750194799758813696,-0.0003965821429489313,-1.1241478135042697e-05,-0.00044374850213308673,-0.13943721554856328,0.34327777546494637,3.1988221185882795
1750194799763813632,-0.0003965821429489313,-1.1241478135042697e-05,-0.00044374850213308673,-0.13943721554856328,0.34327777546494637,3.1988221185882795
1750194799768822272,-0.0003965821429489313,-1.1241478135042697e-05,-0.00044374850213308673,-0.13943721554856328,0.34327777546494637,3.1988221185882795
1750194799773809664,-0.0003965821429489313,-1.1241478135042697e-05,-0.00044374850213308673,-0.13943721554856328,0.34327777546494637,3.1988221185882795
1750194799778811904,-0.0003965821429489313,-1.1241478135042697e-05,-0.00044374850213308673,-0.13943721554856328,0.34327777546494637,3.1988221185882795
1750194799783809024,-0.0003965821429489313,-1.1241478135042697e-05,-0.00044374850213308673,-0.13943721554856328,0.34327777546494637,3.1988221185882795
1750194799788876288,-0.0003965821429489313,-1.1241478135042697e-05,-0.00044374850213308673,-0.13943721554856328,0.34327777546494637,3.1988221185882795
1750194799793814528,-0.0003965821429489313,-1.1241478135042697e-05,-0.00044374850213308673,-0.13943721554856328,0.34327777546494637,3.1988221185882795
1750194799798814208,-0.0003965821429489313,-1.1241478135042697e-05,-0.00044374850213308673,-0.13943721554856328,0.34327777546494637,3.1988221185882795
1750194799803814656,-0.0003965821429489313,-1.1241478135042697e-05,-0.00044374850213308673,-0.13943721554856328,0.34327777546494637,3.1988221185882795
1750194799808813824,-0.0003965821429489313,-1.1241478135042697e-05,-0.00044374850213308673,-0.13943721554856328,0.34327777546494637,3.1988221185882795
1750194799813816320,-0.0003965821429489313,-1.1241478135042697e-05,-0.00044374850213308673,-0.13943721554856328,0.34327777546494637,3.1988221185882795
1750194799819102720,-0.00039311185948458775,-0.00024675012620155567,-0.0008073615648926359,-0.13632724810210056,0.3384531627482477,3.199451598338493
1750194799823818496,-0.00039311185948458775,-0.00024675012620155567,-0.0008073615648926359,-0.13632724810210056,0.3384531627482477,3.199451598338493
1750194799828814080,-0.00039311185948458775,-0.00024675012620155567,-0.0008073615648926359,-0.13632724810210056,0.3384531627482477,3.199451598338493
1750194799833806336,-0.00039311185948458775,-0.00024675012620155567,-0.0008073615648926359,-0.13632724810210056,0.3384531627482477,3.199451598338493
1750194799838803456,-0.00039311185948458775,-0.00024675012620155567,-0.0008073615648926359,-0.13632724810210056,0.3384531627482477,3.199451598338493
1750194799843833856,-0.00039311185948458775,-0.00024675012620155567,-0.0008073615648926359,-0.13632724810210056,0.3384531627482477,3.199451598338493
1750194799848811008,-0.00039311185948458775,-0.00024675012620155567,-0.0008073615648926359,-0.13632724810210056,0.3384531627482477,3.199451598338493
1750194799853803008,-0.00039311185948458775,-0.00024675012620155567,-0.0008073615648926359,-0.13632724810210056,0.3384531627482477,3.199451598338493
1750194799858811904,-0.00039311185948458775,-0.00024675012620155567,-0.0008073615648926359,-0.13632724810210056,0.3384531627482477,3.199451598338493
1750194799863809536,-0.00039311185948458775,-0.00024675012620155567,-0.0008073615648926359,-0.13632724810210056,0.3384531627482477,3.199451598338493
1750194799868814080,-0.00039311185948458775,-0.00024675012620155567,-0.0008073615648926359,-0.13632724810210056,0.3384531627482477,3.199451598338493
1750194799873814016,-0.00039311185948458775,-0.00024675012620155567,-0.0008073615648926359,-0.13632724810210056,0.3384531627482477,3.199451598338493
1750194799878816512,-0.00039311185948458775,-0.00024675012620155567,-0.0008073615648926359,-0.13632724810210056,0.3384531627482477,3.199451598338493
1750194799883812608,-0.00039311185948458775,-0.00024675012620155567,-0.0008073615648926359,-0.13632724810210056,0.3384531627482477,3.199451598338493
1750194799888808448,-0.00039311185948458775,-0.00024675012620155567,-0.0008073615648926359,-0.13632724810210056,0.3384531627482477,3.199451598338493
1750194799893815296,-0.00039311185948458775,-0.00024675012620155567,-0.0008073615648926359,-0.13632724810210056,0.3384531627482477,3.199451598338493
1750194799898809600,-0.00039311185948458775,-0.00024675012620155567,-0.0008073615648926359,-0.13632724810210056,0.3384531627482477,3.199451598338493
1750194799903815424,-0.00039311185948458775,-0.00024675012620155567,-0.0008073615648926359,-0.13632724810210056,0.3384531627482477,3.199451598338493
1750194799908821504,-0.00039311185948458775,-0.00024675012620155567,-0.0008073615648926359,-0.13632724810210056,0.3384531627482477,3.199451598338493
1750194799913818880,-0.00039311185948458775,-0.00024675012620155567,-0.0008073615648926359,-0.13632724810210056,0.3384531627482477,3.199451598338493
1750194799918819072,-0.00039311185948458775,-0.00024675012620155567,-0.0008073615648926359,-0.13632724810210056,0.3384531627482477,3.199451598338493
1750194799923816448,-0.00039311185948458775,-0.00024675012620155567,-0.0008073615648926359,-0.13632724810210056,0.3384531627482477,3.199451598338493
1750194799928814080,-0.00039311185948458775,-0.00024675012620155567,-0.0008073615648926359,-0.13632724810210056,0.3384531627482477,3.199451598338493
1750194799933804032,-0.00039311185948458775,-0.00024675012620155567,-0.0008073615648926359,-0.13632724810210056,0.3384531627482477,3.199451598338493
1750194799940076544,2.2080616738425938e-07,-0.00026087821082635554,-0.0005026610254694914,-0.13661305692822343,0.3366046426019246,3.201393276836484
1750194799945792000,2.2080616738425938e-07,-0.00026087821082635554,-0.0005026610254694914,-0.13661305692822343,0.3366046426019246,3.201393276836484
1750194799948819200,2.2080616738425938e-07,-0.00026087821082635554,-0.0005026610254694914,-0.13661305692822343,0.3366046426019246,3.201393276836484
1750194799953806080,2.2080616738425938e-07,-0.00026087821082635554,-0.0005026610254694914,-0.13661305692822343,0.3366046426019246,3.201393276836484
1750194799958809088,2.2080616738425938e-07,-0.00026087821082635554,-0.0005026610254694914,-0.13661305692822343,0.3366046426019246,3.201393276836484
1750194799963834112,2.2080616738425938e-07,-0.00026087821082635554,-0.0005026610254694914,-0.13661305692822343,0.3366046426019246,3.201393276836484
1750194799968791040,2.2080616738425938e-07,-0.00026087821082635554,-0.0005026610254694914,-0.13661305692822343,0.3366046426019246,3.201393276836484
1750194799973807360,2.2080616738425938e-07,-0.00026087821082635554,-0.0005026610254694914,-0.13661305692822343,0.3366046426019246,3.201393276836484
1750194799978817024,2.2080616738425938e-07,-0.00026087821082635554,-0.0005026610254694914,-0.13661305692822343,0.3366046426019246,3.201393276836484
1750194799983813888,2.2080616738425938e-07,-0.00026087821082635554,-0.0005026610254694914,-0.13661305692822343,0.3366046426019246,3.201393276836484
1750194799988816384,2.2080616738425938e-07,-0.00026087821082635554,-0.0005026610254694914,-0.13661305692822343,0.3366046426019246,3.201393276836484
1750194799993821696,2.2080616738425938e-07,-0.00026087821082635554,-0.0005026610254694914,-0.13661305692822343,0.3366046426019246,3.201393276836484
1750194799998819840,2.2080616738425938e-07,-0.00026087821082635554,-0.0005026610254694914,-0.13661305692822343,0.3366046426019246,3.201393276836484
1750194800003815424,2.2080616738425938e-07,-0.00026087821082635554,-0.0005026610254694914,-0.13661305692822343,0.3366046426019246,3.201393276836484
1750194800008815104,2.2080616738425938e-07,-0.00026087821082635554,-0.0005026610254694914,-0.13661305692822343,0.3366046426019246,3.201393276836484
1750194800013816320,2.2080616738425938e-07,-0.00026087821082635554,-0.0005026610254694914,-0.13661305692822343,0.3366046426019246,3.201393276836484
1750194800018813696,2.2080616738425938e-07,-0.00026087821082635554,-0.0005026610254694914,-0.13661305692822343,0.3366046426019246,3.201393276836484
1750194800023809280,2.2080616738425938e-07,-0.00026087821082635554,-0.0005026610254694914,-0.13661305692822343,0.3366046426019246,3.201393276836484
1750194800028833536,2.2080616738425938e-07,-0.00026087821082635554,-0.0005026610254694914,-0.13661305692822343,0.3366046426019246,3.201393276836484
1750194800033807104,2.2080616738425938e-07,-0.00026087821082635554,-0.0005026610254694914,-0.13661305692822343,0.3366046426019246,3.201393276836484
1750194800038810368,2.2080616738425938e-07,-0.00026087821082635554,-0.0005026610254694914,-0.13661305692822343,0.3366046426019246,3.201393276836484
1750194800043810816,2.2080616738425938e-07,-0.00026087821082635554,-0.0005026610254694914,-0.13661305692822343,0.3366046426019246,3.201393276836484
1750194800048808448,2.2080616738425938e-07,-0.00026087821082635554,-0.0005026610254694914,-0.13661305692822343,0.3366046426019246,3.201393276836484
1750194800053814528,2.2080616738425938e-07,-0.00026087821082635554,-0.0005026610254694914,-0.13661305692822343,0.3366046426019246,3.201393276836484
1750194800072424704,2.2080616738425938e-07,-0.00026087821082635554,-0.0005026610254694914,-0.13661305692822343,0.3366046426019246,3.201393276836484
1750194800073015040,2.2080616738425938e-07,-0.00026087821082635554,-0.0005026610254694914,-0.13661305692822343,0.3366046426019246,3.201393276836484
1750194800073159936,2.2080616738425938e-07,-0.00026087821082635554,-0.0005026610254694914,-0.13661305692822343,0.3366046426019246,3.201393276836484
1750194800073872640,2.2080616738425938e-07,-0.00026087821082635554,-0.0005026610254694914,-0.13661305692822343,0.3366046426019246,3.201393276836484
1750194800078819328,2.2080616738425938e-07,-0.00026087821082635554,-0.0005026610254694914,-0.13661305692822343,0.3366046426019246,3.201393276836484
1750194800083811328,2.2080616738425938e-07,-0.00026087821082635554,-0.0005026610254694914,-0.13661305692822343,0.3366046426019246,3.201393276836484
1750194800088805120,2.2080616738425938e-07,-0.00026087821082635554,-0.0005026610254694914,-0.13661305692822343,0.3366046426019246,3.201393276836484
1750194800093814272,2.2080616738425938e-07,-0.00026087821082635554,-0.0005026610254694914,-0.13661305692822343,0.3366046426019246,3.201393276836484
1750194800098807808,2.2080616738425938e-07,-0.00026087821082635554,-0.0005026610254694914,-0.13661305692822343,0.3366046426019246,3.201393276836484
1750194800103810048,2.2080616738425938e-07,-0.00026087821082635554,-0.0005026610254694914,-0.13661305692822343,0.3366046426019246,3.201393276836484
1750194800108819200,2.2080616738425938e-07,-0.00026087821082635554,-0.0005026610254694914,-0.13661305692822343,0.3366046426019246,3.201393276836484
1750194800113822208,2.2080616738425938e-07,-0.00026087821082635554,-0.0005026610254694914,-0.13661305692822343,0.3366046426019246,3.201393276836484
1750194800118801152,2.2080616738425938e-07,-0.00026087821082635554,-0.0005026610254694914,-0.13661305692822343,0.3366046426019246,3.201393276836484
1750194800123788800,2.2080616738425938e-07,-0.00026087821082635554,-0.0005026610254694914,-0.13661305692822343,0.3366046426019246,3.201393276836484
1750194800128798208,2.2080616738425938e-07,-0.00026087821082635554,-0.0005026610254694914,-0.13661305692822343,0.3366046426019246,3.201393276836484
1750194800133802240,2.2080616738425938e-07,-0.00026087821082635554,-0.0005026610254694914,-0.13661305692822343,0.3366046426019246,3.201393276836484
1750194800138795008,2.2080616738425938e-07,-0.00026087821082635554,-0.0005026610254694914,-0.13661305692822343,0.3366046426019246,3.201393276836484
1750194800143789312,2.2080616738425938e-07,-0.00026087821082635554,-0.0005026610254694914,-0.13661305692822343,0.3366046426019246,3.201393276836484
1750194800148790272,2.2080616738425938e-07,-0.00026087821082635554,-0.0005026610254694914,-0.13661305692822343,0.3366046426019246,3.201393276836484
1750194800153787648,2.2080616738425938e-07,-0.00026087821082635554,-0.0005026610254694914,-0.13661305692822343,0.3366046426019246,3.201393276836484
1750194800158787072,2.2080616738425938e-07,-0.00026087821082635554,-0.0005026610254694914,-0.13661305692822343,0.3366046426019246,3.201393276836484
1750194800163818240,2.2080616738425938e-07,-0.00026087821082635554,-0.0005026610254694914,-0.13661305692822343,0.3366046426019246,3.201393276836484
1750194800168862720,-3.779317330086366e-05,-5.0960375234979366e-05,-0.00039035686906309353,-0.14045930246299743,0.34359979140744845,3.1993487628662773
1750194800173810432,-3.779317330086366e-05,-5.0960375234979366e-05,-0.00039035686906309353,-0.14045930246299743,0.34359979140744845,3.1993487628662773
1750194800178797824,-3.779317330086366e-05,-5.0960375234979366e-05,-0.00039035686906309353,-0.14045930246299743,0.34359979140744845,3.1993487628662773
1750194800183806208,-3.779317330086366e-05,-5.0960375234979366e-05,-0.00039035686906309353,-0.14045930246299743,0.34359979140744845,3.1993487628662773
1750194800188805120,-3.779317330086366e-05,-5.0960375234979366e-05,-0.00039035686906309353,-0.14045930246299743,0.34359979140744845,3.1993487628662773
1750194800193807104,-3.779317330086366e-05,-5.0960375234979366e-05,-0.00039035686906309353,-0.14045930246299743,0.34359979140744845,3.1993487628662773
1750194800198804736,-3.779317330086366e-05,-5.0960375234979366e-05,-0.00039035686906309353,-0.14045930246299743,0.34359979140744845,3.1993487628662773
1750194800203802880,-3.779317330086366e-05,-5.0960375234979366e-05,-0.00039035686906309353,-0.14045930246299743,0.34359979140744845,3.1993487628662773
1750194800208807936,-3.779317330086366e-05,-5.0960375234979366e-05,-0.00039035686906309353,-0.14045930246299743,0.34359979140744845,3.1993487628662773
1750194800213805056,-3.779317330086366e-05,-5.0960375234979366e-05,-0.00039035686906309353,-0.14045930246299743,0.34359979140744845,3.1993487628662773
1750194800218803456,-3.779317330086366e-05,-5.0960375234979366e-05,-0.00039035686906309353,-0.14045930246299743,0.34359979140744845,3.1993487628662773
1750194800223802112,-3.779317330086366e-05,-5.0960375234979366e-05,-0.00039035686906309353,-0.14045930246299743,0.34359979140744845,3.1993487628662773
1750194800228813056,-3.779317330086366e-05,-5.0960375234979366e-05,-0.00039035686906309353,-0.14045930246299743,0.34359979140744845,3.1993487628662773
1750194800233805568,-3.779317330086366e-05,-5.0960375234979366e-05,-0.00039035686906309353,-0.14045930246299743,0.34359979140744845,3.1993487628662773
1750194800238802944,-3.779317330086366e-05,-5.0960375234979366e-05,-0.00039035686906309353,-0.14045930246299743,0.34359979140744845,3.1993487628662773
1750194800243805696,-3.779317330086366e-05,-5.0960375234979366e-05,-0.00039035686906309353,-0.14045930246299743,0.34359979140744845,3.1993487628662773
1750194800248803072,-3.779317330086366e-05,-5.0960375234979366e-05,-0.00039035686906309353,-0.14045930246299743,0.34359979140744845,3.1993487628662773
1750194800253816832,-3.779317330086366e-05,-5.0960375234979366e-05,-0.00039035686906309353,-0.14045930246299743,0.34359979140744845,3.1993487628662773
1750194800258820352,-3.779317330086366e-05,-5.0960375234979366e-05,-0.00039035686906309353,-0.14045930246299743,0.34359979140744845,3.1993487628662773
1750194800263806208,-3.779317330086366e-05,-5.0960375234979366e-05,-0.00039035686906309353,-0.14045930246299743,0.34359979140744845,3.1993487628662773
1750194800268820224,-3.779317330086366e-05,-5.0960375234979366e-05,-0.00039035686906309353,-0.14045930246299743,0.34359979140744845,3.1993487628662773
1750194800273824768,-3.779317330086366e-05,-5.0960375234979366e-05,-0.00039035686906309353,-0.14045930246299743,0.34359979140744845,3.1993487628662773
1750194800278809344,-3.779317330086366e-05,-5.0960375234979366e-05,-0.00039035686906309353,-0.14045930246299743,0.34359979140744845,3.1993487628662773
1750194800283809792,-3.779317330086366e-05,-5.0960375234979366e-05,-0.00039035686906309353,-0.14045930246299743,0.34359979140744845,3.1993487628662773
1750194800288841216,-0.00016944555146691792,-0.00022686906456142938,-6.569617574305877e-05,-0.13807462318061506,0.3434241795453744,3.1985176713450905
1750194800293815296,-0.00016944555146691792,-0.00022686906456142938,-6.569617574305877e-05,-0.13807462318061506,0.3434241795453744,3.1985176713450905
1750194800298797568,-0.00016944555146691792,-0.00022686906456142938,-6.569617574305877e-05,-0.13807462318061506,0.3434241795453744,3.1985176713450905
1750194800303857920,-0.00016944555146691792,-0.00022686906456142938,-6.569617574305877e-05,-0.13807462318061506,0.3434241795453744,3.1985176713450905
1750194800308867584,-0.00016944555146691792,-0.00022686906456142938,-6.569617574305877e-05,-0.13807462318061506,0.3434241795453744,3.1985176713450905
1750194800313812480,-0.00016944555146691792,-0.00022686906456142938,-6.569617574305877e-05,-0.13807462318061506,0.3434241795453744,3.1985176713450905
1750194800318812416,-0.00016944555146691792,-0.00022686906456142938,-6.569617574305877e-05,-0.13807462318061506,0.3434241795453744,3.1985176713450905
1750194800323803136,-0.00016944555146691792,-0.00022686906456142938,-6.569617574305877e-05,-0.13807462318061506,0.3434241795453744,3.1985176713450905
1750194800328800512,-0.00016944555146691792,-0.00022686906456142938,-6.569617574305877e-05,-0.13807462318061506,0.3434241795453744,3.1985176713450905
1750194800333809408,-0.00016944555146691792,-0.00022686906456142938,-6.569617574305877e-05,-0.13807462318061506,0.3434241795453744,3.1985176713450905
1750194800338807552,-0.00016944555146691792,-0.00022686906456142938,-6.569617574305877e-05,-0.13807462318061506,0.3434241795453744,3.1985176713450905
1750194800343812352,-0.00016944555146691792,-0.00022686906456142938,-6.569617574305877e-05,-0.13807462318061506,0.3434241795453744,3.1985176713450905
1750194800348810240,-0.00016944555146691792,-0.00022686906456142938,-6.569617574305877e-05,-0.13807462318061506,0.3434241795453744,3.1985176713450905
1750194800353815296,-0.00016944555146691792,-0.00022686906456142938,-6.569617574305877e-05,-0.13807462318061506,0.3434241795453744,3.1985176713450905
1750194800358812160,-0.00016944555146691792,-0.00022686906456142938,-6.569617574305877e-05,-0.13807462318061506,0.3434241795453744,3.1985176713450905
1750194800363812352,-0.00016944555146691792,-0.00022686906456142938,-6.569617574305877e-05,-0.13807462318061506,0.3434241795453744,3.1985176713450905
1750194800368823552,-0.00016944555146691792,-0.00022686906456142938,-6.569617574305877e-05,-0.13807462318061506,0.3434241795453744,3.1985176713450905
1750194800373809152,-0.00016944555146691792,-0.00022686906456142938,-6.569617574305877e-05,-0.13807462318061506,0.3434241795453744,3.1985176713450905
1750194800378805248,-0.00016944555146691792,-0.00022686906456142938,-6.569617574305877e-05,-0.13807462318061506,0.3434241795453744,3.1985176713450905
1750194800383809792,-0.00016944555146691792,-0.00022686906456142938,-6.569617574305877e-05,-0.13807462318061506,0.3434241795453744,3.1985176713450905
1750194800388805632,-0.00016944555146691792,-0.00022686906456142938,-6.569617574305877e-05,-0.13807462318061506,0.3434241795453744,3.1985176713450905
1750194800393811712,-0.00016944555146691792,-0.00022686906456142938,-6.569617574305877e-05,-0.13807462318061506,0.3434241795453744,3.1985176713450905
1750194800398849024,-0.00016944555146691792,-0.00022686906456142938,-6.569617574305877e-05,-0.13807462318061506,0.3434241795453744,3.1985176713450905
1750194800403830784,-0.00016944555146691792,-0.00022686906456142938,-6.569617574305877e-05,-0.13807462318061506,0.3434241795453744,3.1985176713450905
1750194800408816640,-0.00016944555146691792,-0.00022686906456142938,-6.569617574305877e-05,-0.13807462318061506,0.3434241795453744,3.1985176713450905
1750194800423987456,-0.00016944555146691792,-0.00022686906456142938,-6.569617574305877e-05,-0.13807462318061506,0.3434241795453744,3.1985176713450905
1750194800424640000,-0.00016944555146691792,-0.00022686906456142938,-6.569617574305877e-05,-0.13807462318061506,0.3434241795453744,3.1985176713450905
1750194800424790016,-0.00016944555146691792,-0.00022686906456142938,-6.569617574305877e-05,-0.13807462318061506,0.3434241795453744,3.1985176713450905
1750194800428833024,-0.00016944555146691792,-0.00022686906456142938,-6.569617574305877e-05,-0.13807462318061506,0.3434241795453744,3.1985176713450905
1750194800433826816,-0.00016944555146691792,-0.00022686906456142938,-6.569617574305877e-05,-0.13807462318061506,0.3434241795453744,3.1985176713450905
1750194800438824704,-0.00016944555146691792,-0.00022686906456142938,-6.569617574305877e-05,-0.13807462318061506,0.3434241795453744,3.1985176713450905
1750194800443814912,-0.00016944555146691792,-0.00022686906456142938,-6.569617574305877e-05,-0.13807462318061506,0.3434241795453744,3.1985176713450905
1750194800448822784,-0.00016944555146691792,-0.00022686906456142938,-6.569617574305877e-05,-0.13807462318061506,0.3434241795453744,3.1985176713450905
1750194800453811200,-0.00016944555146691792,-0.00022686906456142938,-6.569617574305877e-05,-0.13807462318061506,0.3434241795453744,3.1985176713450905
1750194800458813696,-0.00016944555146691792,-0.00022686906456142938,-6.569617574305877e-05,-0.13807462318061506,0.3434241795453744,3.1985176713450905
1750194800463820032,-0.00016944555146691792,-0.00022686906456142938,-6.569617574305877e-05,-0.13807462318061506,0.3434241795453744,3.1985176713450905
1750194800468812288,-0.00016944555146691792,-0.00022686906456142938,-6.569617574305877e-05,-0.13807462318061506,0.3434241795453744,3.1985176713450905
1750194800473817088,-0.00016944555146691792,-0.00022686906456142938,-6.569617574305877e-05,-0.13807462318061506,0.3434241795453744,3.1985176713450905
1750194800478815744,-0.00016944555146691792,-0.00022686906456142938,-6.569617574305877e-05,-0.13807462318061506,0.3434241795453744,3.1985176713450905
1750194800483823616,-0.00016944555146691792,-0.00022686906456142938,-6.569617574305877e-05,-0.13807462318061506,0.3434241795453744,3.1985176713450905
1750194800488820224,-0.00016944555146691792,-0.00022686906456142938,-6.569617574305877e-05,-0.13807462318061506,0.3434241795453744,3.1985176713450905
1750194800493811456,-0.00016944555146691792,-0.00022686906456142938,-6.569617574305877e-05,-0.13807462318061506,0.3434241795453744,3.1985176713450905
1750194800498818304,-0.00016944555146691792,-0.00022686906456142938,-6.569617574305877e-05,-0.13807462318061506,0.3434241795453744,3.1985176713450905
1750194800503820544,-0.00016944555146691792,-0.00022686906456142938,-6.569617574305877e-05,-0.13807462318061506,0.3434241795453744,3.1985176713450905
1750194800508811520,-0.00016944555146691792,-0.00022686906456142938,-6.569617574305877e-05,-0.13807462318061506,0.3434241795453744,3.1985176713450905
1750194800513815296,-0.00016944555146691792,-0.00022686906456142938,-6.569617574305877e-05,-0.13807462318061506,0.3434241795453744,3.1985176713450905
1750194800518836224,7.018298751150986e-06,-0.00030513488783370004,-0.0006746060254247475,-0.1360536687994098,0.3437871022032588,3.2015533981614146
1750194800523821568,7.018298751150986e-06,-0.00030513488783370004,-0.0006746060254247475,-0.1360536687994098,0.3437871022032588,3.2015533981614146
1750194800528823296,7.018298751150986e-06,-0.00030513488783370004,-0.0006746060254247475,-0.1360536687994098,0.3437871022032588,3.2015533981614146
1750194800533813760,7.018298751150986e-06,-0.00030513488783370004,-0.0006746060254247475,-0.1360536687994098,0.3437871022032588,3.2015533981614146
1750194800538818816,7.018298751150986e-06,-0.00030513488783370004,-0.0006746060254247475,-0.1360536687994098,0.3437871022032588,3.2015533981614146
1750194800543811840,7.018298751150986e-06,-0.00030513488783370004,-0.0006746060254247475,-0.1360536687994098,0.3437871022032588,3.2015533981614146
1750194800548808448,7.018298751150986e-06,-0.00030513488783370004,-0.0006746060254247475,-0.1360536687994098,0.3437871022032588,3.2015533981614146
1750194800553802752,7.018298751150986e-06,-0.00030513488783370004,-0.0006746060254247475,-0.1360536687994098,0.3437871022032588,3.2015533981614146
1750194800558801664,7.018298751150986e-06,-0.00030513488783370004,-0.0006746060254247475,-0.1360536687994098,0.3437871022032588,3.2015533981614146
1750194800563802880,7.018298751150986e-06,-0.00030513488783370004,-0.0006746060254247475,-0.1360536687994098,0.3437871022032588,3.2015533981614146
1750194800568802560,7.018298751150986e-06,-0.00030513488783370004,-0.0006746060254247475,-0.1360536687994098,0.3437871022032588,3.2015533981614146
1750194800573804032,7.018298751150986e-06,-0.00030513488783370004,-0.0006746060254247475,-0.1360536687994098,0.3437871022032588,3.2015533981614146
1750194800578809344,7.018298751150986e-06,-0.00030513488783370004,-0.0006746060254247475,-0.1360536687994098,0.3437871022032588,3.2015533981614146
1750194800583808768,7.018298751150986e-06,-0.00030513488783370004,-0.0006746060254247475,-0.1360536687994098,0.3437871022032588,3.2015533981614146
1750194800588812800,7.018298751150986e-06,-0.00030513488783370004,-0.0006746060254247475,-0.1360536687994098,0.3437871022032588,3.2015533981614146
1750194800593814016,7.018298751150986e-06,-0.00030513488783370004,-0.0006746060254247475,-0.1360536687994098,0.3437871022032588,3.2015533981614146
1750194800598808832,7.018298751150986e-06,-0.00030513488783370004,-0.0006746060254247475,-0.1360536687994098,0.3437871022032588,3.2015533981614146
1750194800603807232,7.018298751150986e-06,-0.00030513488783370004,-0.0006746060254247475,-0.1360536687994098,0.3437871022032588,3.2015533981614146
1750194800608814848,7.018298751150986e-06,-0.00030513488783370004,-0.0006746060254247475,-0.1360536687994098,0.3437871022032588,3.2015533981614146
1750194800613805312,7.018298751150986e-06,-0.00030513488783370004,-0.0006746060254247475,-0.1360536687994098,0.3437871022032588,3.2015533981614146
1750194800618802432,7.018298751150986e-06,-0.00030513488783370004,-0.0006746060254247475,-0.1360536687994098,0.3437871022032588,3.2015533981614146
1750194800623813376,7.018298751150986e-06,-0.00030513488783370004,-0.0006746060254247475,-0.1360536687994098,0.3437871022032588,3.2015533981614146
1750194800628822784,7.018298751150986e-06,-0.00030513488783370004,-0.0006746060254247475,-0.1360536687994098,0.3437871022032588,3.2015533981614146
1750194800633806592,7.018298751150986e-06,-0.00030513488783370004,-0.0006746060254247475,-0.1360536687994098,0.3437871022032588,3.2015533981614146
1750194800640045568,-2.3301013863753677e-05,7.187736045750699e-05,-0.00033127214499189926,-0.13872665569059767,0.33732185308326446,3.198605416425788
1750194800643843584,-2.3301013863753677e-05,7.187736045750699e-05,-0.00033127214499189926,-0.13872665569059767,0.33732185308326446,3.198605416425788
1750194800648813056,-2.3301013863753677e-05,7.187736045750699e-05,-0.00033127214499189926,-0.13872665569059767,0.33732185308326446,3.198605416425788
1750194800653838080,-2.3301013863753677e-05,7.187736045750699e-05,-0.00033127214499189926,-0.13872665569059767,0.33732185308326446,3.198605416425788
1750194800658857984,-2.3301013863753677e-05,7.187736045750699e-05,-0.00033127214499189926,-0.13872665569059767,0.33732185308326446,3.198605416425788
1750194800663819520,-2.3301013863753677e-05,7.187736045750699e-05,-0.00033127214499189926,-0.13872665569059767,0.33732185308326446,3.198605416425788
1750194800668818688,-2.3301013863753677e-05,7.187736045750699e-05,-0.00033127214499189926,-0.13872665569059767,0.33732185308326446,3.198605416425788
1750194800673817088,-2.3301013863753677e-05,7.187736045750699e-05,-0.00033127214499189926,-0.13872665569059767,0.33732185308326446,3.198605416425788
1750194800678810112,-2.3301013863753677e-05,7.187736045750699e-05,-0.00033127214499189926,-0.13872665569059767,0.33732185308326446,3.198605416425788
1750194800683822336,-2.3301013863753677e-05,7.187736045750699e-05,-0.00033127214499189926,-0.13872665569059767,0.33732185308326446,3.198605416425788
1750194800688814080,-2.3301013863753677e-05,7.187736045750699e-05,-0.00033127214499189926,-0.13872665569059767,0.33732185308326446,3.198605416425788
1750194800693825024,-2.3301013863753677e-05,7.187736045750699e-05,-0.00033127214499189926,-0.13872665569059767,0.33732185308326446,3.198605416425788
1750194800698824960,-2.3301013863753677e-05,7.187736045750699e-05,-0.00033127214499189926,-0.13872665569059767,0.33732185308326446,3.198605416425788
1750194800703809792,-2.3301013863753677e-05,7.187736045750699e-05,-0.00033127214499189926,-0.13872665569059767,0.33732185308326446,3.198605416425788
1750194800708822016,-2.3301013863753677e-05,7.187736045750699e-05,-0.00033127214499189926,-0.13872665569059767,0.33732185308326446,3.198605416425788
1750194800713825536,-2.3301013863753677e-05,7.187736045750699e-05,-0.00033127214499189926,-0.13872665569059767,0.33732185308326446,3.198605416425788
1750194800718814720,-2.3301013863753677e-05,7.187736045750699e-05,-0.00033127214499189926,-0.13872665569059767,0.33732185308326446,3.198605416425788
1750194800723822336,-2.3301013863753677e-05,7.187736045750699e-05,-0.00033127214499189926,-0.13872665569059767,0.33732185308326446,3.198605416425788
1750194800728812288,-2.3301013863753677e-05,7.187736045750699e-05,-0.00033127214499189926,-0.13872665569059767,0.33732185308326446,3.198605416425788
1750194800733823232,-2.3301013863753677e-05,7.187736045750699e-05,-0.00033127214499189926,-0.13872665569059767,0.33732185308326446,3.198605416425788
1750194800738823936,-2.3301013863753677e-05,7.187736045750699e-05,-0.00033127214499189926,-0.13872665569059767,0.33732185308326446,3.198605416425788
1750194800743816960,-2.3301013863753677e-05,7.187736045750699e-05,-0.00033127214499189926,-0.13872665569059767,0.33732185308326446,3.198605416425788
1750194800748822784,-2.3301013863753677e-05,7.187736045750699e-05,-0.00033127214499189926,-0.13872665569059767,0.33732185308326446,3.198605416425788
1750194800753853696,-2.3301013863753677e-05,7.187736045750699e-05,-0.00033127214499189926,-0.13872665569059767,0.33732185308326446,3.198605416425788
1750194800758828544,-2.3301013863753677e-05,7.187736045750699e-05,-0.00033127214499189926,-0.13872665569059767,0.33732185308326446,3.198605416425788
1750194800779266560,-2.3301013863753677e-05,7.187736045750699e-05,-0.00033127214499189926,-0.13872665569059767,0.33732185308326446,3.198605416425788
1750194800779928320,-2.3301013863753677e-05,7.187736045750699e-05,-0.00033127214499189926,-0.13872665569059767,0.33732185308326446,3.198605416425788
1750194800785000192,-2.3301013863753677e-05,7.187736045750699e-05,-0.00033127214499189926,-0.13872665569059767,0.33732185308326446,3.198605416425788
1750194800789998080,-2.3301013863753677e-05,7.187736045750699e-05,-0.00033127214499189926,-0.13872665569059767,0.33732185308326446,3.198605416425788
1750194800794985728,-2.3301013863753677e-05,7.187736045750699e-05,-0.00033127214499189926,-0.13872665569059767,0.33732185308326446,3.198605416425788
1750194800799996416,-2.3301013863753677e-05,7.187736045750699e-05,-0.00033127214499189926,-0.13872665569059767,0.33732185308326446,3.198605416425788
1750194800805006080,-2.3301013863753677e-05,7.187736045750699e-05,-0.00033127214499189926,-0.13872665569059767,0.33732185308326446,3.198605416425788
1750194800810000128,-2.3301013863753677e-05,7.187736045750699e-05,-0.00033127214499189926,-0.13872665569059767,0.33732185308326446,3.198605416425788
1750194800814984960,-2.3301013863753677e-05,7.187736045750699e-05,-0.00033127214499189926,-0.13872665569059767,0.33732185308326446,3.198605416425788
1750194800819981568,-2.3301013863753677e-05,7.187736045750699e-05,-0.00033127214499189926,-0.13872665569059767,0.33732185308326446,3.198605416425788
1750194800824999936,-2.3301013863753677e-05,7.187736045750699e-05,-0.00033127214499189926,-0.13872665569059767,0.33732185308326446,3.198605416425788
1750194800830001664,-2.3301013863753677e-05,7.187736045750699e-05,-0.00033127214499189926,-0.13872665569059767,0.33732185308326446,3.198605416425788
1750194800834984960,-2.3301013863753677e-05,7.187736045750699e-05,-0.00033127214499189926,-0.13872665569059767,0.33732185308326446,3.198605416425788
1750194800839997184,-2.3301013863753677e-05,7.187736045750699e-05,-0.00033127214499189926,-0.13872665569059767,0.33732185308326446,3.198605416425788
1750194800844999936,-2.3301013863753677e-05,7.187736045750699e-05,-0.00033127214499189926,-0.13872665569059767,0.33732185308326446,3.198605416425788
1750194800850005248,-2.3301013863753677e-05,7.187736045750699e-05,-0.00033127214499189926,-0.13872665569059767,0.33732185308326446,3.198605416425788
1750194800854985216,-2.3301013863753677e-05,7.187736045750699e-05,-0.00033127214499189926,-0.13872665569059767,0.33732185308326446,3.198605416425788
1750194800859982080,-2.3301013863753677e-05,7.187736045750699e-05,-0.00033127214499189926,-0.13872665569059767,0.33732185308326446,3.198605416425788
1750194800864997632,-2.3301013863753677e-05,7.187736045750699e-05,-0.00033127214499189926,-0.13872665569059767,0.33732185308326446,3.198605416425788
1750194800870004736,-2.3301013863753677e-05,7.187736045750699e-05,-0.00033127214499189926,-0.13872665569059767,0.33732185308326446,3.198605416425788
1750194800875010304,1.7820649585412877e-05,-0.0001899324666523644,-0.00048443235161165426,-0.13810887939563882,0.3446237105274253,3.2002138412936776
1750194800879988224,1.7820649585412877e-05,-0.0001899324666523644,-0.00048443235161165426,-0.13810887939563882,0.3446237105274253,3.2002138412936776
1750194800885009664,1.7820649585412877e-05,-0.0001899324666523644,-0.00048443235161165426,-0.13810887939563882,0.3446237105274253,3.2002138412936776
1750194800890018560,1.7820649585412877e-05,-0.0001899324666523644,-0.00048443235161165426,-0.13810887939563882,0.3446237105274253,3.2002138412936776
1750194800895011328,1.7820649585412877e-05,-0.0001899324666523644,-0.00048443235161165426,-0.13810887939563882,0.3446237105274253,3.2002138412936776
1750194800900017152,1.7820649585412877e-05,-0.0001899324666523644,-0.00048443235161165426,-0.13810887939563882,0.3446237105274253,3.2002138412936776
1750194800905011200,1.7820649585412877e-05,-0.0001899324666523644,-0.00048443235161165426,-0.13810887939563882,0.3446237105274253,3.2002138412936776
1750194800910018304,1.7820649585412877e-05,-0.0001899324666523644,-0.00048443235161165426,-0.13810887939563882,0.3446237105274253,3.2002138412936776
1750194800915011840,1.7820649585412877e-05,-0.0001899324666523644,-0.00048443235161165426,-0.13810887939563882,0.3446237105274253,3.2002138412936776
1750194800920012032,1.7820649585412877e-05,-0.0001899324666523644,-0.00048443235161165426,-0.13810887939563882,0.3446237105274253,3.2002138412936776
1750194800925015808,1.7820649585412877e-05,-0.0001899324666523644,-0.00048443235161165426,-0.13810887939563882,0.3446237105274253,3.2002138412936776
1750194800929993472,1.7820649585412877e-05,-0.0001899324666523644,-0.00048443235161165426,-0.13810887939563882,0.3446237105274253,3.2002138412936776
1750194800934981888,1.7820649585412877e-05,-0.0001899324666523644,-0.00048443235161165426,-0.13810887939563882,0.3446237105274253,3.2002138412936776
1750194800939985408,1.7820649585412877e-05,-0.0001899324666523644,-0.00048443235161165426,-0.13810887939563882,0.3446237105274253,3.2002138412936776
1750194800945009920,1.7820649585412877e-05,-0.0001899324666523644,-0.00048443235161165426,-0.13810887939563882,0.3446237105274253,3.2002138412936776
1750194800950019328,1.7820649585412877e-05,-0.0001899324666523644,-0.00048443235161165426,-0.13810887939563882,0.3446237105274253,3.2002138412936776
1750194800955012864,1.7820649585412877e-05,-0.0001899324666523644,-0.00048443235161165426,-0.13810887939563882,0.3446237105274253,3.2002138412936776
1750194800960005120,1.7820649585412877e-05,-0.0001899324666523644,-0.00048443235161165426,-0.13810887939563882,0.3446237105274253,3.2002138412936776
1750194800964989696,1.7820649585412877e-05,-0.0001899324666523644,-0.00048443235161165426,-0.13810887939563882,0.3446237105274253,3.2002138412936776
1750194800969989376,1.7820649585412877e-05,-0.0001899324666523644,-0.00048443235161165426,-0.13810887939563882,0.3446237105274253,3.2002138412936776
1750194800974987008,1.7820649585412877e-05,-0.0001899324666523644,-0.00048443235161165426,-0.13810887939563882,0.3446237105274253,3.2002138412936776
1750194800979985408,1.7820649585412877e-05,-0.0001899324666523644,-0.00048443235161165426,-0.13810887939563882,0.3446237105274253,3.2002138412936776
1750194800984977920,1.7820649585412877e-05,-0.0001899324666523644,-0.00048443235161165426,-0.13810887939563882,0.3446237105274253,3.2002138412936776
1750194800989980928,1.7820649585412877e-05,-0.0001899324666523644,-0.00048443235161165426,-0.13810887939563882,0.3446237105274253,3.2002138412936776
1750194800995009536,-0.00022856732540832173,-5.082018069533976e-05,-0.0005047557880313741,-0.13855466332411057,0.34209160215039014,3.1975888719308037
1750194800999996160,-0.00022856732540832173,-5.082018069533976e-05,-0.0005047557880313741,-0.13855466332411057,0.34209160215039014,3.1975888719308037
1750194801004977152,-0.00022856732540832173,-5.082018069533976e-05,-0.0005047557880313741,-0.13855466332411057,0.34209160215039014,3.1975888719308037
1750194801010007040,-0.00022856732540832173,-5.082018069533976e-05,-0.0005047557880313741,-0.13855466332411057,0.34209160215039014,3.1975888719308037
1750194801014984192,-0.00022856732540832173,-5.082018069533976e-05,-0.0005047557880313741,-0.13855466332411057,0.34209160215039014,3.1975888719308037
1750194801020018944,-0.00022856732540832173,-5.082018069533976e-05,-0.0005047557880313741,-0.13855466332411057,0.34209160215039014,3.1975888719308037
1750194801025009152,-0.00022856732540832173,-5.082018069533976e-05,-0.0005047557880313741,-0.13855466332411057,0.34209160215039014,3.1975888719308037
1750194801029982208,-0.00022856732540832173,-5.082018069533976e-05,-0.0005047557880313741,-0.13855466332411057,0.34209160215039014,3.1975888719308037
1750194801034979584,-0.00022856732540832173,-5.082018069533976e-05,-0.0005047557880313741,-0.13855466332411057,0.34209160215039014,3.1975888719308037
1750194801039983360,-0.00022856732540832173,-5.082018069533976e-05,-0.0005047557880313741,-0.13855466332411057,0.34209160215039014,3.1975888719308037
1750194801044987904,-0.00022856732540832173,-5.082018069533976e-05,-0.0005047557880313741,-0.13855466332411057,0.34209160215039014,3.1975888719308037
1750194801049989120,-0.00022856732540832173,-5.082018069533976e-05,-0.0005047557880313741,-0.13855466332411057,0.34209160215039014,3.1975888719308037
1750194801054988288,-0.00022856732540832173,-5.082018069533976e-05,-0.0005047557880313741,-0.13855466332411057,0.34209160215039014,3.1975888719308037
1750194801059990528,-0.00022856732540832173,-5.082018069533976e-05,-0.0005047557880313741,-0.13855466332411057,0.34209160215039014,3.1975888719308037
1750194801064993792,-0.00022856732540832173,-5.082018069533976e-05,-0.0005047557880313741,-0.13855466332411057,0.34209160215039014,3.1975888719308037
1750194801069991168,-0.00022856732540832173,-5.082018069533976e-05,-0.0005047557880313741,-0.13855466332411057,0.34209160215039014,3.1975888719308037
1750194801074991360,-0.00022856732540832173,-5.082018069533976e-05,-0.0005047557880313741,-0.13855466332411057,0.34209160215039014,3.1975888719308037
1750194801079988224,-0.00022856732540832173,-5.082018069533976e-05,-0.0005047557880313741,-0.13855466332411057,0.34209160215039014,3.1975888719308037
1750194801084987648,-0.00022856732540832173,-5.082018069533976e-05,-0.0005047557880313741,-0.13855466332411057,0.34209160215039014,3.1975888719308037
1750194801089989632,-0.00022856732540832173,-5.082018069533976e-05,-0.0005047557880313741,-0.13855466332411057,0.34209160215039014,3.1975888719308037
1750194801094991104,-0.00022856732540832173,-5.082018069533976e-05,-0.0005047557880313741,-0.13855466332411057,0.34209160215039014,3.1975888719308037
1750194801099991808,-0.00022856732540832173,-5.082018069533976e-05,-0.0005047557880313741,-0.13855466332411057,0.34209160215039014,3.1975888719308037
1750194801104998144,-0.00022856732540832173,-5.082018069533976e-05,-0.0005047557880313741,-0.13855466332411057,0.34209160215039014,3.1975888719308037
1750194801110004992,-0.00022856732540832173,-5.082018069533976e-05,-0.0005047557880313741,-0.13855466332411057,0.34209160215039014,3.1975888719308037
1750194801114994688,-0.00022856732540832173,-5.082018069533976e-05,-0.0005047557880313741,-0.13855466332411057,0.34209160215039014,3.1975888719308037
1750194801128795392,-0.00022856732540832173,-5.082018069533976e-05,-0.0005047557880313741,-0.13855466332411057,0.34209160215039014,3.1975888719308037
1750194801129328640,-0.00022856732540832173,-5.082018069533976e-05,-0.0005047557880313741,-0.13855466332411057,0.34209160215039014,3.1975888719308037
1750194801130098944,-0.00022856732540832173,-5.082018069533976e-05,-0.0005047557880313741,-0.13855466332411057,0.34209160215039014,3.1975888719308037
1750194801134984960,-0.00022856732540832173,-5.082018069533976e-05,-0.0005047557880313741,-0.13855466332411057,0.34209160215039014,3.1975888719308037
1750194801139965440,-0.00022856732540832173,-5.082018069533976e-05,-0.0005047557880313741,-0.13855466332411057,0.34209160215039014,3.1975888719308037
1750194801144972288,-0.00022856732540832173,-5.082018069533976e-05,-0.0005047557880313741,-0.13855466332411057,0.34209160215039014,3.1975888719308037
1750194801149970688,-0.00022856732540832173,-5.082018069533976e-05,-0.0005047557880313741,-0.13855466332411057,0.34209160215039014,3.1975888719308037
1750194801154972160,-0.00022856732540832173,-5.082018069533976e-05,-0.0005047557880313741,-0.13855466332411057,0.34209160215039014,3.1975888719308037
1750194801159968000,-0.00022856732540832173,-5.082018069533976e-05,-0.0005047557880313741,-0.13855466332411057,0.34209160215039014,3.1975888719308037
1750194801164963584,-0.00022856732540832173,-5.082018069533976e-05,-0.0005047557880313741,-0.13855466332411057,0.34209160215039014,3.1975888719308037
1750194801169963520,-0.00022856732540832173,-5.082018069533976e-05,-0.0005047557880313741,-0.13855466332411057,0.34209160215039014,3.1975888719308037
1750194801174975744,-0.00022856732540832173,-5.082018069533976e-05,-0.0005047557880313741,-0.13855466332411057,0.34209160215039014,3.1975888719308037
1750194801179966208,-0.00022856732540832173,-5.082018069533976e-05,-0.0005047557880313741,-0.13855466332411057,0.34209160215039014,3.1975888719308037
1750194801184964608,-0.00022856732540832173,-5.082018069533976e-05,-0.0005047557880313741,-0.13855466332411057,0.34209160215039014,3.1975888719308037
1750194801189963776,-0.00022856732540832173,-5.082018069533976e-05,-0.0005047557880313741,-0.13855466332411057,0.34209160215039014,3.1975888719308037
1750194801194963456,-0.00022856732540832173,-5.082018069533976e-05,-0.0005047557880313741,-0.13855466332411057,0.34209160215039014,3.1975888719308037
1750194801199966976,-0.00022856732540832173,-5.082018069533976e-05,-0.0005047557880313741,-0.13855466332411057,0.34209160215039014,3.1975888719308037
1750194801204965376,-0.00022856732540832173,-5.082018069533976e-05,-0.0005047557880313741,-0.13855466332411057,0.34209160215039014,3.1975888719308037
1750194801209963520,-0.00022856732540832173,-5.082018069533976e-05,-0.0005047557880313741,-0.13855466332411057,0.34209160215039014,3.1975888719308037
1750194801214966784,-0.00022856732540832173,-5.082018069533976e-05,-0.0005047557880313741,-0.13855466332411057,0.34209160215039014,3.1975888719308037
1750194801221783808,-0.00010645538937739399,-0.00048755997633847056,2.3698271019253784e-05,-0.1381322226866544,0.33844791431593735,3.1995887724249874
1750194801224997376,-0.00010645538937739399,-0.00048755997633847056,2.3698271019253784e-05,-0.1381322226866544,0.33844791431593735,3.1995887724249874
1750194801229988096,-0.00010645538937739399,-0.00048755997633847056,2.3698271019253784e-05,-0.1381322226866544,0.33844791431593735,3.1995887724249874
1750194801234983936,-0.00010645538937739399,-0.00048755997633847056,2.3698271019253784e-05,-0.1381322226866544,0.33844791431593735,3.1995887724249874
1750194801239988480,-0.00010645538937739399,-0.00048755997633847056,2.3698271019253784e-05,-0.1381322226866544,0.33844791431593735,3.1995887724249874
1750194801244992512,-0.00010645538937739399,-0.00048755997633847056,2.3698271019253784e-05,-0.1381322226866544,0.33844791431593735,3.1995887724249874
1750194801249987584,-0.00010645538937739399,-0.00048755997633847056,2.3698271019253784e-05,-0.1381322226866544,0.33844791431593735,3.1995887724249874
1750194801254987264,-0.00010645538937739399,-0.00048755997633847056,2.3698271019253784e-05,-0.1381322226866544,0.33844791431593735,3.1995887724249874
1750194801259982848,-0.00010645538937739399,-0.00048755997633847056,2.3698271019253784e-05,-0.1381322226866544,0.33844791431593735,3.1995887724249874
1750194801264988160,-0.00010645538937739399,-0.00048755997633847056,2.3698271019253784e-05,-0.1381322226866544,0.33844791431593735,3.1995887724249874
1750194801269979904,-0.00010645538937739399,-0.00048755997633847056,2.3698271019253784e-05,-0.1381322226866544,0.33844791431593735,3.1995887724249874
1750194801274984704,-0.00010645538937739399,-0.00048755997633847056,2.3698271019253784e-05,-0.1381322226866544,0.33844791431593735,3.1995887724249874
1750194801279983360,-0.00010645538937739399,-0.00048755997633847056,2.3698271019253784e-05,-0.1381322226866544,0.33844791431593735,3.1995887724249874
1750194801284980224,-0.00010645538937739399,-0.00048755997633847056,2.3698271019253784e-05,-0.1381322226866544,0.33844791431593735,3.1995887724249874
1750194801289965056,-0.00010645538937739399,-0.00048755997633847056,2.3698271019253784e-05,-0.1381322226866544,0.33844791431593735,3.1995887724249874
1750194801294996992,-0.00010645538937739399,-0.00048755997633847056,2.3698271019253784e-05,-0.1381322226866544,0.33844791431593735,3.1995887724249874
1750194801299986944,-0.00010645538937739399,-0.00048755997633847056,2.3698271019253784e-05,-0.1381322226866544,0.33844791431593735,3.1995887724249874
1750194801304996864,-0.00010645538937739399,-0.00048755997633847056,2.3698271019253784e-05,-0.1381322226866544,0.33844791431593735,3.1995887724249874
1750194801309999360,-0.00010645538937739399,-0.00048755997633847056,2.3698271019253784e-05,-0.1381322226866544,0.33844791431593735,3.1995887724249874
1750194801314995456,-0.00010645538937739399,-0.00048755997633847056,2.3698271019253784e-05,-0.1381322226866544,0.33844791431593735,3.1995887724249874
1750194801319993088,-0.00010645538937739399,-0.00048755997633847056,2.3698271019253784e-05,-0.1381322226866544,0.33844791431593735,3.1995887724249874
1750194801324995328,-0.00010645538937739399,-0.00048755997633847056,2.3698271019253784e-05,-0.1381322226866544,0.33844791431593735,3.1995887724249874
1750194801329999872,-0.00010645538937739399,-0.00048755997633847056,2.3698271019253784e-05,-0.1381322226866544,0.33844791431593735,3.1995887724249874
1750194801334995712,-0.00010645538937739399,-0.00048755997633847056,2.3698271019253784e-05,-0.1381322226866544,0.33844791431593735,3.1995887724249874
1750194801339987712,-0.00010645538937739399,-0.00048755997633847056,2.3698271019253784e-05,-0.1381322226866544,0.33844791431593735,3.1995887724249874
1750194801345018880,-4.786566011127446e-05,-3.306699049001525e-05,-0.0004718916614857972,-0.13639863254499973,0.3412680856678107,3.201284675386814
1750194801350040832,-4.786566011127446e-05,-3.306699049001525e-05,-0.0004718916614857972,-0.13639863254499973,0.3412680856678107,3.201284675386814
1750194801355073280,-4.786566011127446e-05,-3.306699049001525e-05,-0.0004718916614857972,-0.13639863254499973,0.3412680856678107,3.201284675386814
1750194801360011520,-4.786566011127446e-05,-3.306699049001525e-05,-0.0004718916614857972,-0.13639863254499973,0.3412680856678107,3.201284675386814
1750194801364980480,-4.786566011127446e-05,-3.306699049001525e-05,-0.0004718916614857972,-0.13639863254499973,0.3412680856678107,3.201284675386814
1750194801370003456,-4.786566011127446e-05,-3.306699049001525e-05,-0.0004718916614857972,-0.13639863254499973,0.3412680856678107,3.201284675386814
1750194801374985472,-4.786566011127446e-05,-3.306699049001525e-05,-0.0004718916614857972,-0.13639863254499973,0.3412680856678107,3.201284675386814
1750194801379970560,-4.786566011127446e-05,-3.306699049001525e-05,-0.0004718916614857972,-0.13639863254499973,0.3412680856678107,3.201284675386814
1750194801384990720,-4.786566011127446e-05,-3.306699049001525e-05,-0.0004718916614857972,-0.13639863254499973,0.3412680856678107,3.201284675386814
1750194801389998592,-4.786566011127446e-05,-3.306699049001525e-05,-0.0004718916614857972,-0.13639863254499973,0.3412680856678107,3.201284675386814
1750194801394994944,-4.786566011127446e-05,-3.306699049001525e-05,-0.0004718916614857972,-0.13639863254499973,0.3412680856678107,3.201284675386814
1750194801399997952,-4.786566011127446e-05,-3.306699049001525e-05,-0.0004718916614857972,-0.13639863254499973,0.3412680856678107,3.201284675386814
1750194801405001728,-4.786566011127446e-05,-3.306699049001525e-05,-0.0004718916614857972,-0.13639863254499973,0.3412680856678107,3.201284675386814
1750194801409996288,-4.786566011127446e-05,-3.306699049001525e-05,-0.0004718916614857972,-0.13639863254499973,0.3412680856678107,3.201284675386814
1750194801414990080,-4.786566011127446e-05,-3.306699049001525e-05,-0.0004718916614857972,-0.13639863254499973,0.3412680856678107,3.201284675386814
1750194801420000256,-4.786566011127446e-05,-3.306699049001525e-05,-0.0004718916614857972,-0.13639863254499973,0.3412680856678107,3.201284675386814
1750194801424976640,-4.786566011127446e-05,-3.306699049001525e-05,-0.0004718916614857972,-0.13639863254499973,0.3412680856678107,3.201284675386814
1750194801429989376,-4.786566011127446e-05,-3.306699049001525e-05,-0.0004718916614857972,-0.13639863254499973,0.3412680856678107,3.201284675386814
1750194801434981888,-4.786566011127446e-05,-3.306699049001525e-05,-0.0004718916614857972,-0.13639863254499973,0.3412680856678107,3.201284675386814
1750194801439988992,-4.786566011127446e-05,-3.306699049001525e-05,-0.0004718916614857972,-0.13639863254499973,0.3412680856678107,3.201284675386814
1750194801444984576,-4.786566011127446e-05,-3.306699049001525e-05,-0.0004718916614857972,-0.13639863254499973,0.3412680856678107,3.201284675386814
1750194801449996288,-4.786566011127446e-05,-3.306699049001525e-05,-0.0004718916614857972,-0.13639863254499973,0.3412680856678107,3.201284675386814
1750194801454994176,-4.786566011127446e-05,-3.306699049001525e-05,-0.0004718916614857972,-0.13639863254499973,0.3412680856678107,3.201284675386814
1750194801460003584,-4.786566011127446e-05,-3.306699049001525e-05,-0.0004718916614857972,-0.13639863254499973,0.3412680856678107,3.201284675386814
1750194801478015232,-4.786566011127446e-05,-3.306699049001525e-05,-0.0004718916614857972,-0.13639863254499973,0.3412680856678107,3.201284675386814
1750194801478131968,-4.786566011127446e-05,-3.306699049001525e-05,-0.0004718916614857972,-0.13639863254499973,0.3412680856678107,3.201284675386814
1750194801478215424,-4.786566011127446e-05,-3.306699049001525e-05,-0.0004718916614857972,-0.13639863254499973,0.3412680856678107,3.201284675386814
1750194801479997440,-4.786566011127446e-05,-3.306699049001525e-05,-0.0004718916614857972,-0.13639863254499973,0.3412680856678107,3.201284675386814
1750194801485002240,-4.786566011127446e-05,-3.306699049001525e-05,-0.0004718916614857972,-0.13639863254499973,0.3412680856678107,3.201284675386814
1750194801490003200,-4.786566011127446e-05,-3.306699049001525e-05,-0.0004718916614857972,-0.13639863254499973,0.3412680856678107,3.201284675386814
1750194801495001344,-4.786566011127446e-05,-3.306699049001525e-05,-0.0004718916614857972,-0.13639863254499973,0.3412680856678107,3.201284675386814
1750194801499991552,-4.786566011127446e-05,-3.306699049001525e-05,-0.0004718916614857972,-0.13639863254499973,0.3412680856678107,3.201284675386814
1750194801504999424,-4.786566011127446e-05,-3.306699049001525e-05,-0.0004718916614857972,-0.13639863254499973,0.3412680856678107,3.201284675386814
1750194801509997568,-4.786566011127446e-05,-3.306699049001525e-05,-0.0004718916614857972,-0.13639863254499973,0.3412680856678107,3.201284675386814
1750194801514993664,-4.786566011127446e-05,-3.306699049001525e-05,-0.0004718916614857972,-0.13639863254499973,0.3412680856678107,3.201284675386814
1750194801519995648,-4.786566011127446e-05,-3.306699049001525e-05,-0.0004718916614857972,-0.13639863254499973,0.3412680856678107,3.201284675386814
1750194801525000448,-4.786566011127446e-05,-3.306699049001525e-05,-0.0004718916614857972,-0.13639863254499973,0.3412680856678107,3.201284675386814
1750194801529992704,-4.786566011127446e-05,-3.306699049001525e-05,-0.0004718916614857972,-0.13639863254499973,0.3412680856678107,3.201284675386814
1750194801534990336,-4.786566011127446e-05,-3.306699049001525e-05,-0.0004718916614857972,-0.13639863254499973,0.3412680856678107,3.201284675386814
1750194801539991296,-4.786566011127446e-05,-3.306699049001525e-05,-0.0004718916614857972,-0.13639863254499973,0.3412680856678107,3.201284675386814
1750194801544994304,-4.786566011127446e-05,-3.306699049001525e-05,-0.0004718916614857972,-0.13639863254499973,0.3412680856678107,3.201284675386814
1750194801549996032,-4.786566011127446e-05,-3.306699049001525e-05,-0.0004718916614857972,-0.13639863254499973,0.3412680856678107,3.201284675386814
1750194801554995200,-4.786566011127446e-05,-3.306699049001525e-05,-0.0004718916614857972,-0.13639863254499973,0.3412680856678107,3.201284675386814
1750194801560003072,-4.786566011127446e-05,-3.306699049001525e-05,-0.0004718916614857972,-0.13639863254499973,0.3412680856678107,3.201284675386814
1750194801564992256,-4.786566011127446e-05,-3.306699049001525e-05,-0.0004718916614857972,-0.13639863254499973,0.3412680856678107,3.201284675386814
1750194801570733312,-0.000236172002770763,-0.00015542937412578345,-0.00013118478333884681,-0.139530898780917,0.3410573476852893,3.1978251987630717
1750194801575006976,-0.000236172002770763,-0.00015542937412578345,-0.00013118478333884681,-0.139530898780917,0.3410573476852893,3.1978251987630717
1750194801579991552,-0.000236172002770763,-0.00015542937412578345,-0.00013118478333884681,-0.139530898780917,0.3410573476852893,3.1978251987630717
1750194801584984576,-0.000236172002770763,-0.00015542937412578345,-0.00013118478333884681,-0.139530898780917,0.3410573476852893,3.1978251987630717
1750194801589977088,-0.000236172002770763,-0.00015542937412578345,-0.00013118478333884681,-0.139530898780917,0.3410573476852893,3.1978251987630717
1750194801594976768,-0.000236172002770763,-0.00015542937412578345,-0.00013118478333884681,-0.139530898780917,0.3410573476852893,3.1978251987630717
1750194801600009984,-0.000236172002770763,-0.00015542937412578345,-0.00013118478333884681,-0.139530898780917,0.3410573476852893,3.1978251987630717
1750194801605012224,-0.000236172002770763,-0.00015542937412578345,-0.00013118478333884681,-0.139530898780917,0.3410573476852893,3.1978251987630717
1750194801610012672,-0.000236172002770763,-0.00015542937412578345,-0.00013118478333884681,-0.139530898780917,0.3410573476852893,3.1978251987630717
1750194801614998784,-0.000236172002770763,-0.00015542937412578345,-0.00013118478333884681,-0.139530898780917,0.3410573476852893,3.1978251987630717
1750194801619988224,-0.000236172002770763,-0.00015542937412578345,-0.00013118478333884681,-0.139530898780917,0.3410573476852893,3.1978251987630717
1750194801624991744,-0.000236172002770763,-0.00015542937412578345,-0.00013118478333884681,-0.139530898780917,0.3410573476852893,3.1978251987630717
1750194801630001408,-0.000236172002770763,-0.00015542937412578345,-0.00013118478333884681,-0.139530898780917,0.3410573476852893,3.1978251987630717
1750194801634981632,-0.000236172002770763,-0.00015542937412578345,-0.00013118478333884681,-0.139530898780917,0.3410573476852893,3.1978251987630717
1750194801639984384,-0.000236172002770763,-0.00015542937412578345,-0.00013118478333884681,-0.139530898780917,0.3410573476852893,3.1978251987630717
1750194801644978176,-0.000236172002770763,-0.00015542937412578345,-0.00013118478333884681,-0.139530898780917,0.3410573476852893,3.1978251987630717
1750194801649987072,-0.000236172002770763,-0.00015542937412578345,-0.00013118478333884681,-0.139530898780917,0.3410573476852893,3.1978251987630717
1750194801655004672,-0.000236172002770763,-0.00015542937412578345,-0.00013118478333884681,-0.139530898780917,0.3410573476852893,3.1978251987630717
1750194801659998976,-0.000236172002770763,-0.00015542937412578345,-0.00013118478333884681,-0.139530898780917,0.3410573476852893,3.1978251987630717
1750194801664990976,-0.000236172002770763,-0.00015542937412578345,-0.00013118478333884681,-0.139530898780917,0.3410573476852893,3.1978251987630717
1750194801669992192,-0.000236172002770763,-0.00015542937412578345,-0.00013118478333884681,-0.139530898780917,0.3410573476852893,3.1978251987630717
1750194801674992896,-0.000236172002770763,-0.00015542937412578345,-0.00013118478333884681,-0.139530898780917,0.3410573476852893,3.1978251987630717
1750194801679985408,-0.000236172002770763,-0.00015542937412578345,-0.00013118478333884681,-0.139530898780917,0.3410573476852893,3.1978251987630717
1750194801684986880,-0.000236172002770763,-0.00015542937412578345,-0.00013118478333884681,-0.139530898780917,0.3410573476852893,3.1978251987630717
1750194801690539776,0.0001387319123985172,-0.0001916890129915594,-0.00028027004060442076,-0.13628360663276637,0.3452078157331293,3.201520069749151
1750194801695003392,0.0001387319123985172,-0.0001916890129915594,-0.00028027004060442076,-0.13628360663276637,0.3452078157331293,3.201520069749151
1750194801699981568,0.0001387319123985172,-0.0001916890129915594,-0.00028027004060442076,-0.13628360663276637,0.3452078157331293,3.201520069749151
1750194801704975616,0.0001387319123985172,-0.0001916890129915594,-0.00028027004060442076,-0.13628360663276637,0.3452078157331293,3.201520069749151
1750194801709981696,0.0001387319123985172,-0.0001916890129915594,-0.00028027004060442076,-0.13628360663276637,0.3452078157331293,3.201520069749151
1750194801715090944,0.0001387319123985172,-0.0001916890129915594,-0.00028027004060442076,-0.13628360663276637,0.3452078157331293,3.201520069749151
1750194801719992832,0.0001387319123985172,-0.0001916890129915594,-0.00028027004060442076,-0.13628360663276637,0.3452078157331293,3.201520069749151
1750194801724971520,0.0001387319123985172,-0.0001916890129915594,-0.00028027004060442076,-0.13628360663276637,0.3452078157331293,3.201520069749151
1750194801729964800,0.0001387319123985172,-0.0001916890129915594,-0.00028027004060442076,-0.13628360663276637,0.3452078157331293,3.201520069749151
1750194801734962432,0.0001387319123985172,-0.0001916890129915594,-0.00028027004060442076,-0.13628360663276637,0.3452078157331293,3.201520069749151
1750194801739968000,0.0001387319123985172,-0.0001916890129915594,-0.00028027004060442076,-0.13628360663276637,0.3452078157331293,3.201520069749151
1750194801744970496,0.0001387319123985172,-0.0001916890129915594,-0.00028027004060442076,-0.13628360663276637,0.3452078157331293,3.201520069749151
1750194801749969664,0.0001387319123985172,-0.0001916890129915594,-0.00028027004060442076,-0.13628360663276637,0.3452078157331293,3.201520069749151
1750194801754971392,0.0001387319123985172,-0.0001916890129915594,-0.00028027004060442076,-0.13628360663276637,0.3452078157331293,3.201520069749151
1750194801759972352,0.0001387319123985172,-0.0001916890129915594,-0.00028027004060442076,-0.13628360663276637,0.3452078157331293,3.201520069749151
1750194801764968704,0.0001387319123985172,-0.0001916890129915594,-0.00028027004060442076,-0.13628360663276637,0.3452078157331293,3.201520069749151
1750194801769968896,0.0001387319123985172,-0.0001916890129915594,-0.00028027004060442076,-0.13628360663276637,0.3452078157331293,3.201520069749151
1750194801774974208,0.0001387319123985172,-0.0001916890129915594,-0.00028027004060442076,-0.13628360663276637,0.3452078157331293,3.201520069749151
1750194801779981056,0.0001387319123985172,-0.0001916890129915594,-0.00028027004060442076,-0.13628360663276637,0.3452078157331293,3.201520069749151
1750194801784982016,0.0001387319123985172,-0.0001916890129915594,-0.00028027004060442076,-0.13628360663276637,0.3452078157331293,3.201520069749151
1750194801789985536,0.0001387319123985172,-0.0001916890129915594,-0.00028027004060442076,-0.13628360663276637,0.3452078157331293,3.201520069749151
1750194801794985216,0.0001387319123985172,-0.0001916890129915594,-0.00028027004060442076,-0.13628360663276637,0.3452078157331293,3.201520069749151
1750194801800115456,0.0001387319123985172,-0.0001916890129915594,-0.00028027004060442076,-0.13628360663276637,0.3452078157331293,3.201520069749151
1750194801805033728,0.0001387319123985172,-0.0001916890129915594,-0.00028027004060442076,-0.13628360663276637,0.3452078157331293,3.201520069749151
1750194801810020608,0.0001387319123985172,-0.0001916890129915594,-0.00028027004060442076,-0.13628360663276637,0.3452078157331293,3.201520069749151
1750194801824157952,0.0001387319123985172,-0.0001916890129915594,-0.00028027004060442076,-0.13628360663276637,0.3452078157331293,3.201520069749151
1750194801824218624,0.0001387319123985172,-0.0001916890129915594,-0.00028027004060442076,-0.13628360663276637,0.3452078157331293,3.201520069749151
1750194801824974336,0.0001387319123985172,-0.0001916890129915594,-0.00028027004060442076,-0.13628360663276637,0.3452078157331293,3.201520069749151
1750194801829982464,0.0001387319123985172,-0.0001916890129915594,-0.00028027004060442076,-0.13628360663276637,0.3452078157331293,3.201520069749151
1750194801834974976,0.0001387319123985172,-0.0001916890129915594,-0.00028027004060442076,-0.13628360663276637,0.3452078157331293,3.201520069749151
1750194801839974400,0.0001387319123985172,-0.0001916890129915594,-0.00028027004060442076,-0.13628360663276637,0.3452078157331293,3.201520069749151
1750194801844983808,0.0001387319123985172,-0.0001916890129915594,-0.00028027004060442076,-0.13628360663276637,0.3452078157331293,3.201520069749151
1750194801850008576,0.0001387319123985172,-0.0001916890129915594,-0.00028027004060442076,-0.13628360663276637,0.3452078157331293,3.201520069749151
1750194801855001344,0.0001387319123985172,-0.0001916890129915594,-0.00028027004060442076,-0.13628360663276637,0.3452078157331293,3.201520069749151
1750194801859991808,0.0001387319123985172,-0.0001916890129915594,-0.00028027004060442076,-0.13628360663276637,0.3452078157331293,3.201520069749151
1750194801865016064,0.0001387319123985172,-0.0001916890129915594,-0.00028027004060442076,-0.13628360663276637,0.3452078157331293,3.201520069749151
1750194801870013184,0.0001387319123985172,-0.0001916890129915594,-0.00028027004060442076,-0.13628360663276637,0.3452078157331293,3.201520069749151
1750194801875012864,0.0001387319123985172,-0.0001916890129915594,-0.00028027004060442076,-0.13628360663276637,0.3452078157331293,3.201520069749151
1750194801880012032,0.0001387319123985172,-0.0001916890129915594,-0.00028027004060442076,-0.13628360663276637,0.3452078157331293,3.201520069749151
1750194801885018368,0.0001387319123985172,-0.0001916890129915594,-0.00028027004060442076,-0.13628360663276637,0.3452078157331293,3.201520069749151
1750194801890123008,0.0001387319123985172,-0.0001916890129915594,-0.00028027004060442076,-0.13628360663276637,0.3452078157331293,3.201520069749151
1750194801895011072,0.0001387319123985172,-0.0001916890129915594,-0.00028027004060442076,-0.13628360663276637,0.3452078157331293,3.201520069749151
1750194801900011520,0.0001387319123985172,-0.0001916890129915594,-0.00028027004060442076,-0.13628360663276637,0.3452078157331293,3.201520069749151
1750194801905202432,0.0001387319123985172,-0.0001916890129915594,-0.00028027004060442076,-0.13628360663276637,0.3452078157331293,3.201520069749151
1750194801910013952,0.0001387319123985172,-0.0001916890129915594,-0.00028027004060442076,-0.13628360663276637,0.3452078157331293,3.201520069749151
1750194801915007488,0.0001387319123985172,-0.0001916890129915594,-0.00028027004060442076,-0.13628360663276637,0.3452078157331293,3.201520069749151
1750194801920004352,-5.1093181094942245e-05,-7.353167687463399e-05,-0.00023949109646824378,-0.1391783115447798,0.3445567666619179,3.1989599568707776
1750194801924984064,-5.1093181094942245e-05,-7.353167687463399e-05,-0.00023949109646824378,-0.1391783115447798,0.3445567666619179,3.1989599568707776
1750194801929981696,-5.1093181094942245e-05,-7.353167687463399e-05,-0.00023949109646824378,-0.1391783115447798,0.3445567666619179,3.1989599568707776
1750194801934979584,-5.1093181094942245e-05,-7.353167687463399e-05,-0.00023949109646824378,-0.1391783115447798,0.3445567666619179,3.1989599568707776
1750194801939978752,-5.1093181094942245e-05,-7.353167687463399e-05,-0.00023949109646824378,-0.1391783115447798,0.3445567666619179,3.1989599568707776
1750194801944983040,-5.1093181094942245e-05,-7.353167687463399e-05,-0.00023949109646824378,-0.1391783115447798,0.3445567666619179,3.1989599568707776
1750194801949978368,-5.1093181094942245e-05,-7.353167687463399e-05,-0.00023949109646824378,-0.1391783115447798,0.3445567666619179,3.1989599568707776
1750194801954998272,-5.1093181094942245e-05,-7.353167687463399e-05,-0.00023949109646824378,-0.1391783115447798,0.3445567666619179,3.1989599568707776
1750194801960011776,-5.1093181094942245e-05,-7.353167687463399e-05,-0.00023949109646824378,-0.1391783115447798,0.3445567666619179,3.1989599568707776
1750194801965011712,-5.1093181094942245e-05,-7.353167687463399e-05,-0.00023949109646824378,-0.1391783115447798,0.3445567666619179,3.1989599568707776
1750194801970018816,-5.1093181094942245e-05,-7.353167687463399e-05,-0.00023949109646824378,-0.1391783115447798,0.3445567666619179,3.1989599568707776
1750194801975011840,-5.1093181094942245e-05,-7.353167687463399e-05,-0.00023949109646824378,-0.1391783115447798,0.3445567666619179,3.1989599568707776
1750194801980010752,-5.1093181094942245e-05,-7.353167687463399e-05,-0.00023949109646824378,-0.1391783115447798,0.3445567666619179,3.1989599568707776
1750194801985010944,-5.1093181094942245e-05,-7.353167687463399e-05,-0.00023949109646824378,-0.1391783115447798,0.3445567666619179,3.1989599568707776
1750194801990011392,-5.1093181094942245e-05,-7.353167687463399e-05,-0.00023949109646824378,-0.1391783115447798,0.3445567666619179,3.1989599568707776
1750194801995011584,-5.1093181094942245e-05,-7.353167687463399e-05,-0.00023949109646824378,-0.1391783115447798,0.3445567666619179,3.1989599568707776
1750194802000012032,-5.1093181094942245e-05,-7.353167687463399e-05,-0.00023949109646824378,-0.1391783115447798,0.3445567666619179,3.1989599568707776
1750194802005013760,-5.1093181094942245e-05,-7.353167687463399e-05,-0.00023949109646824378,-0.1391783115447798,0.3445567666619179,3.1989599568707776
1750194802010018560,-5.1093181094942245e-05,-7.353167687463399e-05,-0.00023949109646824378,-0.1391783115447798,0.3445567666619179,3.1989599568707776
1750194802015012864,-5.1093181094942245e-05,-7.353167687463399e-05,-0.00023949109646824378,-0.1391783115447798,0.3445567666619179,3.1989599568707776
1750194802020009984,-5.1093181094942245e-05,-7.353167687463399e-05,-0.00023949109646824378,-0.1391783115447798,0.3445567666619179,3.1989599568707776
1750194802024994048,-5.1093181094942245e-05,-7.353167687463399e-05,-0.00023949109646824378,-0.1391783115447798,0.3445567666619179,3.1989599568707776
1750194802029984000,-5.1093181094942245e-05,-7.353167687463399e-05,-0.00023949109646824378,-0.1391783115447798,0.3445567666619179,3.1989599568707776
1750194802034981120,-5.1093181094942245e-05,-7.353167687463399e-05,-0.00023949109646824378,-0.1391783115447798,0.3445567666619179,3.1989599568707776
1750194802040007680,5.03621406794382e-05,-0.00024255699642932154,-7.20931826661719e-05,-0.13774641467988483,0.33917066347648106,3.200347423295274
1750194802045016576,5.03621406794382e-05,-0.00024255699642932154,-7.20931826661719e-05,-0.13774641467988483,0.33917066347648106,3.200347423295274
1750194802049986816,5.03621406794382e-05,-0.00024255699642932154,-7.20931826661719e-05,-0.13774641467988483,0.33917066347648106,3.200347423295274
1750194802055016704,5.03621406794382e-05,-0.00024255699642932154,-7.20931826661719e-05,-0.13774641467988483,0.33917066347648106,3.200347423295274
1750194802059999488,5.03621406794382e-05,-0.00024255699642932154,-7.20931826661719e-05,-0.13774641467988483,0.33917066347648106,3.200347423295274
1750194802065358336,5.03621406794382e-05,-0.00024255699642932154,-7.20931826661719e-05,-0.13774641467988483,0.33917066347648106,3.200347423295274
1750194802069992960,5.03621406794382e-05,-0.00024255699642932154,-7.20931826661719e-05,-0.13774641467988483,0.33917066347648106,3.200347423295274
1750194802074971648,5.03621406794382e-05,-0.00024255699642932154,-7.20931826661719e-05,-0.13774641467988483,0.33917066347648106,3.200347423295274
1750194802079972608,5.03621406794382e-05,-0.00024255699642932154,-7.20931826661719e-05,-0.13774641467988483,0.33917066347648106,3.200347423295274
1750194802084968704,5.03621406794382e-05,-0.00024255699642932154,-7.20931826661719e-05,-0.13774641467988483,0.33917066347648106,3.200347423295274
1750194802089980672,5.03621406794382e-05,-0.00024255699642932154,-7.20931826661719e-05,-0.13774641467988483,0.33917066347648106,3.200347423295274
1750194802094974976,5.03621406794382e-05,-0.00024255699642932154,-7.20931826661719e-05,-0.13774641467988483,0.33917066347648106,3.200347423295274
1750194802099967744,5.03621406794382e-05,-0.00024255699642932154,-7.20931826661719e-05,-0.13774641467988483,0.33917066347648106,3.200347423295274
1750194802104975872,5.03621406794382e-05,-0.00024255699642932154,-7.20931826661719e-05,-0.13774641467988483,0.33917066347648106,3.200347423295274
1750194802109986560,5.03621406794382e-05,-0.00024255699642932154,-7.20931826661719e-05,-0.13774641467988483,0.33917066347648106,3.200347423295274
1750194802114979328,5.03621406794382e-05,-0.00024255699642932154,-7.20931826661719e-05,-0.13774641467988483,0.33917066347648106,3.200347423295274
1750194802119976448,5.03621406794382e-05,-0.00024255699642932154,-7.20931826661719e-05,-0.13774641467988483,0.33917066347648106,3.200347423295274
1750194802124974592,5.03621406794382e-05,-0.00024255699642932154,-7.20931826661719e-05,-0.13774641467988483,0.33917066347648106,3.200347423295274
1750194802129984512,5.03621406794382e-05,-0.00024255699642932154,-7.20931826661719e-05,-0.13774641467988483,0.33917066347648106,3.200347423295274
1750194802134976512,5.03621406794382e-05,-0.00024255699642932154,-7.20931826661719e-05,-0.13774641467988483,0.33917066347648106,3.200347423295274
1750194802139977216,5.03621406794382e-05,-0.00024255699642932154,-7.20931826661719e-05,-0.13774641467988483,0.33917066347648106,3.200347423295274
1750194802144984832,5.03621406794382e-05,-0.00024255699642932154,-7.20931826661719e-05,-0.13774641467988483,0.33917066347648106,3.200347423295274
1750194802149970688,5.03621406794382e-05,-0.00024255699642932154,-7.20931826661719e-05,-0.13774641467988483,0.33917066347648106,3.200347423295274
1750194802154973952,5.03621406794382e-05,-0.00024255699642932154,-7.20931826661719e-05,-0.13774641467988483,0.33917066347648106,3.200347423295274
1750194802159969024,5.03621406794382e-05,-0.00024255699642932154,-7.20931826661719e-05,-0.13774641467988483,0.33917066347648106,3.200347423295274
1750194802174397440,5.03621406794382e-05,-0.00024255699642932154,-7.20931826661719e-05,-0.13774641467988483,0.33917066347648106,3.200347423295274
1750194802176127232,5.03621406794382e-05,-0.00024255699642932154,-7.20931826661719e-05,-0.13774641467988483,0.33917066347648106,3.200347423295274
1750194802176198400,5.03621406794382e-05,-0.00024255699642932154,-7.20931826661719e-05,-0.13774641467988483,0.33917066347648106,3.200347423295274
1750194802179974912,5.03621406794382e-05,-0.00024255699642932154,-7.20931826661719e-05,-0.13774641467988483,0.33917066347648106,3.200347423295274
1750194802184979968,5.03621406794382e-05,-0.00024255699642932154,-7.20931826661719e-05,-0.13774641467988483,0.33917066347648106,3.200347423295274
1750194802189986816,5.03621406794382e-05,-0.00024255699642932154,-7.20931826661719e-05,-0.13774641467988483,0.33917066347648106,3.200347423295274
1750194802194970624,5.03621406794382e-05,-0.00024255699642932154,-7.20931826661719e-05,-0.13774641467988483,0.33917066347648106,3.200347423295274
1750194802199972352,5.03621406794382e-05,-0.00024255699642932154,-7.20931826661719e-05,-0.13774641467988483,0.33917066347648106,3.200347423295274
1750194802204990464,5.03621406794382e-05,-0.00024255699642932154,-7.20931826661719e-05,-0.13774641467988483,0.33917066347648106,3.200347423295274
1750194802209985280,5.03621406794382e-05,-0.00024255699642932154,-7.20931826661719e-05,-0.13774641467988483,0.33917066347648106,3.200347423295274
1750194802214977536,5.03621406794382e-05,-0.00024255699642932154,-7.20931826661719e-05,-0.13774641467988483,0.33917066347648106,3.200347423295274
1750194802219978752,5.03621406794382e-05,-0.00024255699642932154,-7.20931826661719e-05,-0.13774641467988483,0.33917066347648106,3.200347423295274
1750194802224993280,5.03621406794382e-05,-0.00024255699642932154,-7.20931826661719e-05,-0.13774641467988483,0.33917066347648106,3.200347423295274
1750194802229993728,5.03621406794382e-05,-0.00024255699642932154,-7.20931826661719e-05,-0.13774641467988483,0.33917066347648106,3.200347423295274
1750194802234980864,5.03621406794382e-05,-0.00024255699642932154,-7.20931826661719e-05,-0.13774641467988483,0.33917066347648106,3.200347423295274
1750194802239979264,5.03621406794382e-05,-0.00024255699642932154,-7.20931826661719e-05,-0.13774641467988483,0.33917066347648106,3.200347423295274
1750194802244986368,5.03621406794382e-05,-0.00024255699642932154,-7.20931826661719e-05,-0.13774641467988483,0.33917066347648106,3.200347423295274
1750194802249986304,5.03621406794382e-05,-0.00024255699642932154,-7.20931826661719e-05,-0.13774641467988483,0.33917066347648106,3.200347423295274
1750194802254980096,5.03621406794382e-05,-0.00024255699642932154,-7.20931826661719e-05,-0.13774641467988483,0.33917066347648106,3.200347423295274
1750194802259982848,5.03621406794382e-05,-0.00024255699642932154,-7.20931826661719e-05,-0.13774641467988483,0.33917066347648106,3.200347423295274
1750194802264984832,5.03621406794382e-05,-0.00024255699642932154,-7.20931826661719e-05,-0.13774641467988483,0.33917066347648106,3.200347423295274
1750194802270342912,-0.00010821789552015336,-0.00021785489285860548,-0.00012421979964599854,-0.13896828542728165,0.3460389055444322,3.1988537870445723
1750194802274992128,-0.00010821789552015336,-0.00021785489285860548,-0.00012421979964599854,-0.13896828542728165,0.3460389055444322,3.1988537870445723
1750194802279991552,-0.00010821789552015336,-0.00021785489285860548,-0.00012421979964599854,-0.13896828542728165,0.3460389055444322,3.1988537870445723
1750194802284994560,-0.00010821789552015336,-0.00021785489285860548,-0.00012421979964599854,-0.13896828542728165,0.3460389055444322,3.1988537870445723
1750194802289991168,-0.00010821789552015336,-0.00021785489285860548,-0.00012421979964599854,-0.13896828542728165,0.3460389055444322,3.1988537870445723
1750194802294987776,-0.00010821789552015336,-0.00021785489285860548,-0.00012421979964599854,-0.13896828542728165,0.3460389055444322,3.1988537870445723
1750194802299985920,-0.00010821789552015336,-0.00021785489285860548,-0.00012421979964599854,-0.13896828542728165,0.3460389055444322,3.1988537870445723
1750194802305006336,-0.00010821789552015336,-0.00021785489285860548,-0.00012421979964599854,-0.13896828542728165,0.3460389055444322,3.1988537870445723
1750194802310004736,-0.00010821789552015336,-0.00021785489285860548,-0.00012421979964599854,-0.13896828542728165,0.3460389055444322,3.1988537870445723
1750194802314995456,-0.00010821789552015336,-0.00021785489285860548,-0.00012421979964599854,-0.13896828542728165,0.3460389055444322,3.1988537870445723
1750194802319992064,-0.00010821789552015336,-0.00021785489285860548,-0.00012421979964599854,-0.13896828542728165,0.3460389055444322,3.1988537870445723
1750194802325005824,-0.00010821789552015336,-0.00021785489285860548,-0.00012421979964599854,-0.13896828542728165,0.3460389055444322,3.1988537870445723
1750194802330006016,-0.00010821789552015336,-0.00021785489285860548,-0.00012421979964599854,-0.13896828542728165,0.3460389055444322,3.1988537870445723
1750194802334992896,-0.00010821789552015336,-0.00021785489285860548,-0.00012421979964599854,-0.13896828542728165,0.3460389055444322,3.1988537870445723
1750194802339989248,-0.00010821789552015336,-0.00021785489285860548,-0.00012421979964599854,-0.13896828542728165,0.3460389055444322,3.1988537870445723
1750194802345001728,-0.00010821789552015336,-0.00021785489285860548,-0.00012421979964599854,-0.13896828542728165,0.3460389055444322,3.1988537870445723
1750194802350004480,-0.00010821789552015336,-0.00021785489285860548,-0.00012421979964599854,-0.13896828542728165,0.3460389055444322,3.1988537870445723
1750194802354994432,-0.00010821789552015336,-0.00021785489285860548,-0.00012421979964599854,-0.13896828542728165,0.3460389055444322,3.1988537870445723
1750194802360010752,-0.00010821789552015336,-0.00021785489285860548,-0.00012421979964599854,-0.13896828542728165,0.3460389055444322,3.1988537870445723
1750194802364990976,-0.00010821789552015336,-0.00021785489285860548,-0.00012421979964599854,-0.13896828542728165,0.3460389055444322,3.1988537870445723
1750194802369996800,-0.00010821789552015336,-0.00021785489285860548,-0.00012421979964599854,-0.13896828542728165,0.3460389055444322,3.1988537870445723
1750194802374987776,-0.00010821789552015336,-0.00021785489285860548,-0.00012421979964599854,-0.13896828542728165,0.3460389055444322,3.1988537870445723
1750194802379992832,-0.00010821789552015336,-0.00021785489285860548,-0.00012421979964599854,-0.13896828542728165,0.3460389055444322,3.1988537870445723
1750194802384987392,-0.00010821789552015336,-0.00021785489285860548,-0.00012421979964599854,-0.13896828542728165,0.3460389055444322,3.1988537870445723
1750194802389978112,-0.00010821789552015336,-0.00021785489285860548,-0.00012421979964599854,-0.13896828542728165,0.3460389055444322,3.1988537870445723
1750194802396553728,-0.00023786472918778658,-0.00032760351829997725,-0.0005933939438732085,-0.13501978184998414,0.3339580781169895,3.198872498126129
1750194802399990272,-0.00023786472918778658,-0.00032760351829997725,-0.0005933939438732085,-0.13501978184998414,0.3339580781169895,3.198872498126129
1750194802404978944,-0.00023786472918778658,-0.00032760351829997725,-0.0005933939438732085,-0.13501978184998414,0.3339580781169895,3.198872498126129
1750194802409970688,-0.00023786472918778658,-0.00032760351829997725,-0.0005933939438732085,-0.13501978184998414,0.3339580781169895,3.198872498126129
1750194802415020032,-0.00023786472918778658,-0.00032760351829997725,-0.0005933939438732085,-0.13501978184998414,0.3339580781169895,3.198872498126129
1750194802420192512,-0.00023786472918778658,-0.00032760351829997725,-0.0005933939438732085,-0.13501978184998414,0.3339580781169895,3.198872498126129
1750194802425021952,-0.00023786472918778658,-0.00032760351829997725,-0.0005933939438732085,-0.13501978184998414,0.3339580781169895,3.198872498126129
1750194802429977600,-0.00023786472918778658,-0.00032760351829997725,-0.0005933939438732085,-0.13501978184998414,0.3339580781169895,3.198872498126129
1750194802434977024,-0.00023786472918778658,-0.00032760351829997725,-0.0005933939438732085,-0.13501978184998414,0.3339580781169895,3.198872498126129
1750194802439976704,-0.00023786472918778658,-0.00032760351829997725,-0.0005933939438732085,-0.13501978184998414,0.3339580781169895,3.198872498126129
1750194802444988160,-0.00023786472918778658,-0.00032760351829997725,-0.0005933939438732085,-0.13501978184998414,0.3339580781169895,3.198872498126129
1750194802450008832,-0.00023786472918778658,-0.00032760351829997725,-0.0005933939438732085,-0.13501978184998414,0.3339580781169895,3.198872498126129
1750194802454988544,-0.00023786472918778658,-0.00032760351829997725,-0.0005933939438732085,-0.13501978184998414,0.3339580781169895,3.198872498126129
1750194802460004608,-0.00023786472918778658,-0.00032760351829997725,-0.0005933939438732085,-0.13501978184998414,0.3339580781169895,3.198872498126129
1750194802465009408,-0.00023786472918778658,-0.00032760351829997725,-0.0005933939438732085,-0.13501978184998414,0.3339580781169895,3.198872498126129
1750194802470015744,-0.00023786472918778658,-0.00032760351829997725,-0.0005933939438732085,-0.13501978184998414,0.3339580781169895,3.198872498126129
1750194802475009024,-0.00023786472918778658,-0.00032760351829997725,-0.0005933939438732085,-0.13501978184998414,0.3339580781169895,3.198872498126129
1750194802479998720,-0.00023786472918778658,-0.00032760351829997725,-0.0005933939438732085,-0.13501978184998414,0.3339580781169895,3.198872498126129
1750194802484982528,-0.00023786472918778658,-0.00032760351829997725,-0.0005933939438732085,-0.13501978184998414,0.3339580781169895,3.198872498126129
1750194802490013696,-0.00023786472918778658,-0.00032760351829997725,-0.0005933939438732085,-0.13501978184998414,0.3339580781169895,3.198872498126129
1750194802495000832,-0.00023786472918778658,-0.00032760351829997725,-0.0005933939438732085,-0.13501978184998414,0.3339580781169895,3.198872498126129
1750194802499982592,-0.00023786472918778658,-0.00032760351829997725,-0.0005933939438732085,-0.13501978184998414,0.3339580781169895,3.198872498126129
1750194802505008128,-0.00023786472918778658,-0.00032760351829997725,-0.0005933939438732085,-0.13501978184998414,0.3339580781169895,3.198872498126129
1750194802509989120,-0.00023786472918778658,-0.00032760351829997725,-0.0005933939438732085,-0.13501978184998414,0.3339580781169895,3.198872498126129
1750194802515008256,-0.00023786472918778658,-0.00032760351829997725,-0.0005933939438732085,-0.13501978184998414,0.3339580781169895,3.198872498126129
1750194802532597760,-0.00023786472918778658,-0.00032760351829997725,-0.0005933939438732085,-0.13501978184998414,0.3339580781169895,3.198872498126129
1750194802533061120,-0.00023786472918778658,-0.00032760351829997725,-0.0005933939438732085,-0.13501978184998414,0.3339580781169895,3.198872498126129
1750194802533113856,-0.00023786472918778658,-0.00032760351829997725,-0.0005933939438732085,-0.13501978184998414,0.3339580781169895,3.198872498126129
1750194802534974720,-0.00023786472918778658,-0.00032760351829997725,-0.0005933939438732085,-0.13501978184998414,0.3339580781169895,3.198872498126129
1750194802539971328,-0.00023786472918778658,-0.00032760351829997725,-0.0005933939438732085,-0.13501978184998414,0.3339580781169895,3.198872498126129
1750194802544946944,-0.00023786472918778658,-0.00032760351829997725,-0.0005933939438732085,-0.13501978184998414,0.3339580781169895,3.198872498126129
1750194802550001920,-0.00023786472918778658,-0.00032760351829997725,-0.0005933939438732085,-0.13501978184998414,0.3339580781169895,3.198872498126129
1750194802554988288,-0.00023786472918778658,-0.00032760351829997725,-0.0005933939438732085,-0.13501978184998414,0.3339580781169895,3.198872498126129
1750194802559982848,-0.00023786472918778658,-0.00032760351829997725,-0.0005933939438732085,-0.13501978184998414,0.3339580781169895,3.198872498126129
1750194802564976896,-0.00023786472918778658,-0.00032760351829997725,-0.0005933939438732085,-0.13501978184998414,0.3339580781169895,3.198872498126129
1750194802569979392,-0.00023786472918778658,-0.00032760351829997725,-0.0005933939438732085,-0.13501978184998414,0.3339580781169895,3.198872498126129
1750194802574989056,-0.00023786472918778658,-0.00032760351829997725,-0.0005933939438732085,-0.13501978184998414,0.3339580781169895,3.198872498126129
1750194802579966208,-0.00023786472918778658,-0.00032760351829997725,-0.0005933939438732085,-0.13501978184998414,0.3339580781169895,3.198872498126129
1750194802584970240,-0.00023786472918778658,-0.00032760351829997725,-0.0005933939438732085,-0.13501978184998414,0.3339580781169895,3.198872498126129
1750194802589970944,-0.00023786472918778658,-0.00032760351829997725,-0.0005933939438732085,-0.13501978184998414,0.3339580781169895,3.198872498126129
1750194802594969600,-0.00023786472918778658,-0.00032760351829997725,-0.0005933939438732085,-0.13501978184998414,0.3339580781169895,3.198872498126129
1750194802599988992,-0.00023786472918778658,-0.00032760351829997725,-0.0005933939438732085,-0.13501978184998414,0.3339580781169895,3.198872498126129
1750194802605008896,-0.00023786472918778658,-0.00032760351829997725,-0.0005933939438732085,-0.13501978184998414,0.3339580781169895,3.198872498126129
1750194802610006272,-0.00023786472918778658,-0.00032760351829997725,-0.0005933939438732085,-0.13501978184998414,0.3339580781169895,3.198872498126129
1750194802615011072,-0.00023786472918778658,-0.00032760351829997725,-0.0005933939438732085,-0.13501978184998414,0.3339580781169895,3.198872498126129
1750194802620006912,-0.00023786472918778658,-0.00032760351829997725,-0.0005933939438732085,-0.13501978184998414,0.3339580781169895,3.198872498126129
1750194802625032192,-0.00023786472918778658,-0.00032760351829997725,-0.0005933939438732085,-0.13501978184998414,0.3339580781169895,3.198872498126129
1750194802630007040,-0.0012879779776495714,-0.0005884253510520456,6.711977466948076e-05,-0.1365190034670304,0.34694781757322607,3.19446484008264
1750194802634988288,-0.0012879779776495714,-0.0005884253510520456,6.711977466948076e-05,-0.1365190034670304,0.34694781757322607,3.19446484008264
1750194802639977472,-0.0012879779776495714,-0.0005884253510520456,6.711977466948076e-05,-0.1365190034670304,0.34694781757322607,3.19446484008264
1750194802644974336,-0.0012879779776495714,-0.0005884253510520456,6.711977466948076e-05,-0.1365190034670304,0.34694781757322607,3.19446484008264
1750194802649977856,-0.0012879779776495714,-0.0005884253510520456,6.711977466948076e-05,-0.1365190034670304,0.34694781757322607,3.19446484008264
1750194802655009024,-0.0012879779776495714,-0.0005884253510520456,6.711977466948076e-05,-0.1365190034670304,0.34694781757322607,3.19446484008264
1750194802660018688,-0.0012879779776495714,-0.0005884253510520456,6.711977466948076e-05,-0.1365190034670304,0.34694781757322607,3.19446484008264
1750194802665016832,-0.0012879779776495714,-0.0005884253510520456,6.711977466948076e-05,-0.1365190034670304,0.34694781757322607,3.19446484008264
1750194802670017280,-0.0012879779776495714,-0.0005884253510520456,6.711977466948076e-05,-0.1365190034670304,0.34694781757322607,3.19446484008264
1750194802675025664,-0.0012879779776495714,-0.0005884253510520456,6.711977466948076e-05,-0.1365190034670304,0.34694781757322607,3.19446484008264
1750194802680018688,-0.0012879779776495714,-0.0005884253510520456,6.711977466948076e-05,-0.1365190034670304,0.34694781757322607,3.19446484008264
1750194802685022208,-0.0012879779776495714,-0.0005884253510520456,6.711977466948076e-05,-0.1365190034670304,0.34694781757322607,3.19446484008264
1750194802690017280,-0.0012879779776495714,-0.0005884253510520456,6.711977466948076e-05,-0.1365190034670304,0.34694781757322607,3.19446484008264
1750194802695017472,-0.0012879779776495714,-0.0005884253510520456,6.711977466948076e-05,-0.1365190034670304,0.34694781757322607,3.19446484008264
1750194802700015616,-0.0012879779776495714,-0.0005884253510520456,6.711977466948076e-05,-0.1365190034670304,0.34694781757322607,3.19446484008264
1750194802705016320,-0.0012879779776495714,-0.0005884253510520456,6.711977466948076e-05,-0.1365190034670304,0.34694781757322607,3.19446484008264
1750194802710012160,-0.0012879779776495714,-0.0005884253510520456,6.711977466948076e-05,-0.1365190034670304,0.34694781757322607,3.19446484008264
1750194802715014400,-0.0012879779776495714,-0.0005884253510520456,6.711977466948076e-05,-0.1365190034670304,0.34694781757322607,3.19446484008264
1750194802720005376,-0.0012879779776495714,-0.0005884253510520456,6.711977466948076e-05,-0.1365190034670304,0.34694781757322607,3.19446484008264
1750194802724989952,-0.0012879779776495714,-0.0005884253510520456,6.711977466948076e-05,-0.1365190034670304,0.34694781757322607,3.19446484008264
1750194802730007296,-0.0012879779776495714,-0.0005884253510520456,6.711977466948076e-05,-0.1365190034670304,0.34694781757322607,3.19446484008264
1750194802734996224,-0.0012879779776495714,-0.0005884253510520456,6.711977466948076e-05,-0.1365190034670304,0.34694781757322607,3.19446484008264
1750194802739986176,-0.0012879779776495714,-0.0005884253510520456,6.711977466948076e-05,-0.1365190034670304,0.34694781757322607,3.19446484008264
1750194802744985856,-0.0012879779776495714,-0.0005884253510520456,6.711977466948076e-05,-0.1365190034670304,0.34694781757322607,3.19446484008264
1750194802749975808,-0.0012879779776495714,-0.0005884253510520456,6.711977466948076e-05,-0.1365190034670304,0.34694781757322607,3.19446484008264
1750194802755002112,-0.00048429349594275323,-0.00035702352825498466,6.097317315003989e-05,-0.1412380643897413,0.34185307362834383,3.2036730430508924
1750194802760015616,-0.00048429349594275323,-0.00035702352825498466,6.097317315003989e-05,-0.1412380643897413,0.34185307362834383,3.2036730430508924
